%time,field.header.seq,field.header.stamp,field.header.frame_id,field.orientation.x,field.orientation.y,field.orientation.z,field.orientation.w,field.orientation_covariance0,field.orientation_covariance1,field.orientation_covariance2,field.orientation_covariance3,field.orientation_covariance4,field.orientation_covariance5,field.orientation_covariance6,field.orientation_covariance7,field.orientation_covariance8,field.angular_velocity.x,field.angular_velocity.y,field.angular_velocity.z,field.angular_velocity_covariance0,field.angular_velocity_covariance1,field.angular_velocity_covariance2,field.angular_velocity_covariance3,field.angular_velocity_covariance4,field.angular_velocity_covariance5,field.angular_velocity_covariance6,field.angular_velocity_covariance7,field.angular_velocity_covariance8,field.linear_acceleration.x,field.linear_acceleration.y,field.linear_acceleration.z,field.linear_acceleration_covariance0,field.linear_acceleration_covariance1,field.linear_acceleration_covariance2,field.linear_acceleration_covariance3,field.linear_acceleration_covariance4,field.linear_acceleration_covariance5,field.linear_acceleration_covariance6,field.linear_acceleration_covariance7,field.linear_acceleration_covariance8
1421850640308949947,351126,1421850640308949947,fcu,-0.00885953194939,-0.0136809341907,-0.718233250772,0.695611485111,0.0,0.0,0.0,0.0,0.0,0.0,0.0,0.0,0.0,-0.19504054391,-0.156817833292,-0.0259181393921,0.000169,0.0,0.0,0.0,0.000169,0.0,0.0,0.0,0.000169,0.30411,0.07848,9.76095,0.006889,0.0,0.0,0.0,0.006889,0.0,0.0,0.0,0.006889
1421850640310950041,351127,1421850640310950041,fcu,-0.00867742098691,-0.0138689667451,-0.718229644498,0.695613780693,0.0,0.0,0.0,0.0,0.0,0.0,0.0,0.0,0.0,0.244258828817,0.0688532389912,0.0248709418409,0.000169,0.0,0.0,0.0,0.000169,0.0,0.0,0.0,0.000169,0.30411,0.07848,9.76095,0.006889,0.0,0.0,0.0,0.006889,0.0,0.0,0.0,0.006889
1421850640326956034,351135,1421850640326956034,fcu,-0.00830998374999,-0.0141223820095,-0.718164075511,0.695680862998,0.0,0.0,0.0,0.0,0.0,0.0,0.0,0.0,0.0,0.0746128255228,0.171740398396,-0.000785398163397,0.000169,0.0,0.0,0.0,0.000169,0.0,0.0,0.0,0.000169,0.3924,-0.08829,9.95715,0.006889,0.0,0.0,0.0,0.006889,0.0,0.0,0.0,0.006889
1421850640328955889,351136,1421850640328955889,fcu,-0.00849408269282,-0.0140577396509,-0.718165282313,0.695678702991,0.0,0.0,0.0,0.0,0.0,0.0,0.0,0.0,0.0,-0.154461638801,-0.186139364725,0.0332485222505,0.000169,0.0,0.0,0.0,0.000169,0.0,0.0,0.0,0.000169,0.3924,-0.08829,9.95715,0.006889,0.0,0.0,0.0,0.006889,0.0,0.0,0.0,0.006889
1421850640340960026,351142,1421850640340960026,fcu,-0.00855676248213,-0.0141184406767,-0.718164029764,0.695677998647,0.0,0.0,0.0,0.0,0.0,0.0,0.0,0.0,0.0,-0.305781684949,-0.0856083998103,0.0102101761242,0.000169,0.0,0.0,0.0,0.000169,0.0,0.0,0.0,0.000169,0.41202,-0.15696,10.09449,0.006889,0.0,0.0,0.0,0.006889,0.0,0.0,0.0,0.006889
1421850640342959881,351143,1421850640342959881,fcu,-0.00861624517747,-0.0140565209513,-0.718104547069,0.695739918373,0.0,0.0,0.0,0.0,0.0,0.0,0.0,0.0,0.0,-0.243473430653,-0.142157067575,0.0107337748998,0.000169,0.0,0.0,0.0,0.000169,0.0,0.0,0.0,0.000169,0.28449,0.11772,9.78057,0.006889,0.0,0.0,0.0,0.006889,0.0,0.0,0.0,0.006889
1421850640348961830,351146,1421850640348961830,fcu,-0.00837786370963,-0.014429095773,-0.718218485359,0.695617581638,0.0,0.0,0.0,0.0,0.0,0.0,0.0,0.0,0.0,0.104981554507,0.220173285139,-0.0510508806208,0.000169,0.0,0.0,0.0,0.000169,0.0,0.0,0.0,0.000169,0.36297,-0.13734,10.02582,0.006889,0.0,0.0,0.0,0.006889,0.0,0.0,0.0,0.006889
1421850640350961924,351147,1421850640350961924,fcu,-0.00849677514925,-0.0143052259656,-0.718099573919,0.695741451445,0.0,0.0,0.0,0.0,0.0,0.0,0.0,0.0,0.0,0.0950331777711,0.0827286065445,0.0376991118431,0.000169,0.0,0.0,0.0,0.000169,0.0,0.0,0.0,0.000169,0.36297,-0.13734,10.02582,0.006889,0.0,0.0,0.0,0.006889,0.0,0.0,0.0,0.006889
1421850640362965822,351153,1421850640362965822,fcu,-0.00837534522975,-0.0144305577663,-0.718097066249,0.695742923815,0.0,0.0,0.0,0.0,0.0,0.0,0.0,0.0,0.0,-0.196611340237,0.00628318530718,0.128543499409,0.000169,0.0,0.0,0.0,0.000169,0.0,0.0,0.0,0.000169,0.36297,-0.10791,9.91791,0.006889,0.0,0.0,0.0,0.006889,0.0,0.0,0.0,0.006889
1421850640364965916,351154,1421850640364965916,fcu,-0.00855624708177,-0.0142433066292,-0.718040101987,0.695803370781,0.0,0.0,0.0,0.0,0.0,0.0,0.0,0.0,0.0,-0.0463384916404,-0.139277274309,-0.0319395253115,0.000169,0.0,0.0,0.0,0.000169,0.0,0.0,0.0,0.000169,0.32373,0.07848,9.80019,0.006889,0.0,0.0,0.0,0.006889,0.0,0.0,0.0,0.006889
1421850640368968010,351156,1421850640368968010,fcu,-0.00880622769447,-0.0143620122427,-0.718098253034,0.695737796837,0.0,0.0,0.0,0.0,0.0,0.0,0.0,0.0,0.0,0.0327249234749,-0.191898951257,-0.0960803753223,0.000169,0.0,0.0,0.0,0.000169,0.0,0.0,0.0,0.000169,0.32373,0.07848,9.80019,0.006889,0.0,0.0,0.0,0.006889,0.0,0.0,0.0,0.006889
1421850640370967865,351157,1421850640370967865,fcu,-0.00850393461634,-0.0146745982849,-0.718152630238,0.695678905059,0.0,0.0,0.0,0.0,0.0,0.0,0.0,0.0,0.0,0.152890842475,0.324893040259,-0.073042029196,0.000169,0.0,0.0,0.0,0.000169,0.0,0.0,0.0,0.000169,0.37278,-0.18639,9.98658,0.006889,0.0,0.0,0.0,0.006889,0.0,0.0,0.0,0.006889
1421850640372967958,351158,1421850640372967958,fcu,-0.00844125477994,-0.0146138982539,-0.718153931149,0.695679603245,0.0,0.0,0.0,0.0,0.0,0.0,0.0,0.0,0.0,0.0604756585816,0.258919594533,0.0505272818452,0.000169,0.0,0.0,0.0,0.000169,0.0,0.0,0.0,0.000169,0.37278,-0.18639,9.98658,0.006889,0.0,0.0,0.0,0.006889,0.0,0.0,0.0,0.006889
1421850640374968052,351159,1421850640374968052,fcu,-0.00843801983665,-0.0144912636014,-0.718095781634,0.695742230643,0.0,0.0,0.0,0.0,0.0,0.0,0.0,0.0,0.0,-0.233786853305,0.0958185759345,0.103410758181,0.000169,0.0,0.0,0.0,0.000169,0.0,0.0,0.0,0.000169,0.38259,-0.00981,9.82962,0.006889,0.0,0.0,0.0,0.006889,0.0,0.0,0.0,0.006889
1421850640376970053,351160,1421850640376970053,fcu,-0.00849677514925,-0.0143052259656,-0.718099573919,0.695741451445,0.0,0.0,0.0,0.0,0.0,0.0,0.0,0.0,0.0,-0.130114295736,-0.0146607657168,-0.0458148928649,0.000169,0.0,0.0,0.0,0.000169,0.0,0.0,0.0,0.000169,0.38259,-0.00981,9.82962,0.006889,0.0,0.0,0.0,0.006889,0.0,0.0,0.0,0.006889
1421850640378969908,351161,1421850640378969908,fcu,-0.00880945136417,-0.014484615209,-0.718156423695,0.695675168879,0.0,0.0,0.0,0.0,0.0,0.0,0.0,0.0,0.0,-0.112311937366,-0.303687289847,-0.111264739815,0.000169,0.0,0.0,0.0,0.000169,0.0,0.0,0.0,0.000169,0.34335,-0.01962,9.82962,0.006889,0.0,0.0,0.0,0.006889,0.0,0.0,0.0,0.006889
1421850640380970001,351162,1421850640380970001,fcu,-0.00875465330953,-0.0149173972868,-0.718147371903,0.695676059336,0.0,0.0,0.0,0.0,0.0,0.0,0.0,0.0,0.0,0.385106899453,-0.049480084294,-0.0617846555206,0.000169,0.0,0.0,0.0,0.000169,0.0,0.0,0.0,0.000169,0.34335,-0.01962,9.82962,0.006889,0.0,0.0,0.0,0.006889,0.0,0.0,0.0,0.006889
1421850640382972002,351163,1421850640382972002,fcu,-0.00863126445044,-0.0149193679452,-0.718147395464,0.695677534582,0.0,0.0,0.0,0.0,0.0,0.0,0.0,0.0,0.0,0.212842902281,0.0816814089933,-0.0212057504117,0.000169,0.0,0.0,0.0,0.000169,0.0,0.0,0.0,0.000169,0.34335,-0.01962,9.82962,0.006889,0.0,0.0,0.0,0.006889,0.0,0.0,0.0,0.006889
1421850640384971857,351164,1421850640384971857,fcu,-0.00856599129033,-0.0148601636398,-0.718027288383,0.695803573192,0.0,0.0,0.0,0.0,0.0,0.0,0.0,0.0,0.0,-0.0311541271481,0.123831110429,0.233786853305,0.000169,0.0,0.0,0.0,0.000169,0.0,0.0,0.0,0.000169,0.42183,-0.15696,9.94734,0.006889,0.0,0.0,0.0,0.006889,0.0,0.0,0.0,0.006889
1421850640388972044,351166,1421850640388972044,fcu,-0.00868420783293,-0.0146122309501,-0.717971732372,0.695864684228,0.0,0.0,0.0,0.0,0.0,0.0,0.0,0.0,0.0,-0.173572994111,-0.0918915851175,-0.0178023583703,0.000169,0.0,0.0,0.0,0.000169,0.0,0.0,0.0,0.000169,0.42183,-0.15696,9.94734,0.006889,0.0,0.0,0.0,0.006889,0.0,0.0,0.0,0.006889
1421850640390974045,351167,1421850640390974045,fcu,-0.00893810732274,-0.0149776863245,-0.718024590644,0.69579915664,0.0,0.0,0.0,0.0,0.0,0.0,0.0,0.0,0.0,0.281434341884,-0.203941723096,-0.0735656279716,0.000169,0.0,0.0,0.0,0.000169,0.0,0.0,0.0,0.000169,0.35316,0.02943,9.77076,0.006889,0.0,0.0,0.0,0.006889,0.0,0.0,0.0,0.006889
1421850640396975994,351170,1421850640396975994,fcu,-0.00869196006409,-0.0151057127229,-0.717961266152,0.695864848644,0.0,0.0,0.0,0.0,0.0,0.0,0.0,0.0,0.0,-0.0932005820565,0.204465321871,0.215984494934,0.000169,0.0,0.0,0.0,0.000169,0.0,0.0,0.0,0.000169,0.36297,-0.17658,9.97677,0.006889,0.0,0.0,0.0,0.006889,0.0,0.0,0.0,0.006889
1421850640398975849,351171,1421850640398975849,fcu,-0.00862412879112,-0.0147990093016,-0.717907131005,0.69592813205,0.0,0.0,0.0,0.0,0.0,0.0,0.0,0.0,0.0,-0.0853466004225,0.204988920647,0.0151843644924,0.000169,0.0,0.0,0.0,0.000169,0.0,0.0,0.0,0.000169,0.40221,0.05886,9.9081,0.006889,0.0,0.0,0.0,0.006889,0.0,0.0,0.0,0.006889
1421850640402976036,351173,1421850640402976036,fcu,-0.00881666732506,-0.0151030050279,-0.718021965608,0.695800706036,0.0,0.0,0.0,0.0,0.0,0.0,0.0,0.0,0.0,0.119118721449,-0.17488199105,-0.120165919,0.000169,0.0,0.0,0.0,0.000169,0.0,0.0,0.0,0.000169,0.33354,-0.04905,9.81981,0.006889,0.0,0.0,0.0,0.006889,0.0,0.0,0.0,0.006889
1421850640404978037,351174,1421850640404978037,fcu,-0.00870047506861,-0.0154743009079,-0.718074630814,0.69573965844,0.0,0.0,0.0,0.0,0.0,0.0,0.0,0.0,0.0,0.153152641863,0.0238237442897,-0.0431968989869,0.000169,0.0,0.0,0.0,0.000169,0.0,0.0,0.0,0.000169,0.33354,-0.04905,9.81981,0.006889,0.0,0.0,0.0,0.006889,0.0,0.0,0.0,0.006889
1421850640412979841,351178,1421850640412979841,fcu,-0.00863123436728,-0.0151683666053,-0.717959945196,0.695865604511,0.0,0.0,0.0,0.0,0.0,0.0,0.0,0.0,0.0,-0.0246091424531,-0.24975661596,-0.100530964915,0.000169,0.0,0.0,0.0,0.000169,0.0,0.0,0.0,0.000169,0.36297,0.05886,9.72171,0.006889,0.0,0.0,0.0,0.006889,0.0,0.0,0.0,0.006889
1421850640414979935,351179,1421850640414979935,fcu,-0.0085776841019,-0.015600376941,-0.718011201498,0.695803827309,0.0,0.0,0.0,0.0,0.0,0.0,0.0,0.0,0.0,0.412857634559,-0.177499984928,-0.0615228561328,0.000169,0.0,0.0,0.0,0.000169,0.0,0.0,0.0,0.000169,0.36297,0.05886,9.72171,0.006889,0.0,0.0,0.0,0.006889,0.0,0.0,0.0,0.006889
1421850640416980028,351180,1421850640416980028,fcu,-0.00851891250261,-0.0157864021663,-0.718007070099,0.695804616917,0.0,0.0,0.0,0.0,0.0,0.0,0.0,0.0,0.0,0.293215314335,-0.0866555973615,-0.0282743338823,0.000169,0.0,0.0,0.0,0.000169,0.0,0.0,0.0,0.000169,0.33354,-0.11772,9.92772,0.006889,0.0,0.0,0.0,0.006889,0.0,0.0,0.0,0.006889
1421850640418982029,351181,1421850640418982029,fcu,-0.00845624329452,-0.0157256932981,-0.718008467783,0.6958053138,0.0,0.0,0.0,0.0,0.0,0.0,0.0,0.0,0.0,0.0596902604182,0.135088484104,0.123831110429,0.000169,0.0,0.0,0.0,0.000169,0.0,0.0,0.0,0.000169,0.33354,-0.11772,9.92772,0.006889,0.0,0.0,0.0,0.006889,0.0,0.0,0.0,0.006889
1421850640421982050,351182,1421850640421982050,fcu,-0.00820227663264,-0.0153602042914,-0.717955993844,0.695870661608,0.0,0.0,0.0,0.0,0.0,0.0,0.0,0.0,0.0,-0.071733032257,0.212842902281,-0.0382227106187,0.000169,0.0,0.0,0.0,0.000169,0.0,0.0,0.0,0.000169,0.46107,0.03924,9.94734,0.006889,0.0,0.0,0.0,0.006889,0.0,0.0,0.0,0.006889
1421850640424983978,351184,1421850640424983978,fcu,-0.0083342259254,-0.0157269151924,-0.718069208094,0.695744074501,0.0,0.0,0.0,0.0,0.0,0.0,0.0,0.0,0.0,0.0824668071567,-0.239808239224,-0.0806342114421,0.000169,0.0,0.0,0.0,0.000169,0.0,0.0,0.0,0.000169,0.33354,0.07848,9.72171,0.006889,0.0,0.0,0.0,0.006889,0.0,0.0,0.0,0.006889
1421850640426983833,351185,1421850640426983833,fcu,-0.00839886008567,-0.0159109849213,-0.718065021719,0.695743432805,0.0,0.0,0.0,0.0,0.0,0.0,0.0,0.0,0.0,0.298974900867,-0.243997029429,-0.052098078172,0.000169,0.0,0.0,0.0,0.000169,0.0,0.0,0.0,0.000169,0.33354,0.07848,9.72171,0.006889,0.0,0.0,0.0,0.006889,0.0,0.0,0.0,0.006889
1421850640428983927,351186,1421850640428983927,fcu,-0.00827938933633,-0.0161596760178,-0.718059401926,0.695744933067,0.0,0.0,0.0,0.0,0.0,0.0,0.0,0.0,0.0,0.180641577581,-0.00523598775598,0.0790634151153,0.000169,0.0,0.0,0.0,0.000169,0.0,0.0,0.0,0.000169,0.38259,-0.08829,9.97677,0.006889,0.0,0.0,0.0,0.006889,0.0,0.0,0.0,0.006889
1421850640430984020,351187,1421850640430984020,fcu,-0.00802313347517,-0.0159196662124,-0.717822182442,0.695998209732,0.0,0.0,0.0,0.0,0.0,0.0,0.0,0.0,0.0,-0.0808960108299,0.213890099832,0.134564885329,0.000169,0.0,0.0,0.0,0.000169,0.0,0.0,0.0,0.000169,0.38259,-0.08829,9.97677,0.006889,0.0,0.0,0.0,0.006889,0.0,0.0,0.0,0.006889
1421850640434985876,351189,1421850640434985876,fcu,-0.00815124046094,-0.0160396934776,-0.717940814287,0.695871592101,0.0,0.0,0.0,0.0,0.0,0.0,0.0,0.0,0.0,-0.0518362787842,-0.154723438189,-0.16650441064,0.000169,0.0,0.0,0.0,0.000169,0.0,0.0,0.0,0.000169,0.44145,0.07848,9.86886,0.006889,0.0,0.0,0.0,0.006889,0.0,0.0,0.0,0.006889
1421850640436985970,351190,1421850640436985970,fcu,-0.00827656881472,-0.0161611207977,-0.717937960592,0.695870247477,0.0,0.0,0.0,0.0,0.0,0.0,0.0,0.0,0.0,-0.0416261026601,-0.268344372494,-0.13561208288,0.000169,0.0,0.0,0.0,0.000169,0.0,0.0,0.0,0.000169,0.32373,-0.01962,9.76095,0.006889,0.0,0.0,0.0,0.006889,0.0,0.0,0.0,0.006889
1421850640444988012,351194,1421850640444988012,fcu,-0.00796814548656,-0.0163524052896,-0.717812262517,0.695999039712,0.0,0.0,0.0,0.0,0.0,0.0,0.0,0.0,0.0,-0.0450294947015,-0.131946891451,-0.057334065928,0.000169,0.0,0.0,0.0,0.000169,0.0,0.0,0.0,0.000169,0.46107,-0.04905,10.02582,0.006889,0.0,0.0,0.0,0.006889,0.0,0.0,0.0,0.006889
1421850640446990013,351195,1421850640446990013,fcu,-0.00809296337154,-0.0163497822668,-0.717872975962,0.695935039316,0.0,0.0,0.0,0.0,0.0,0.0,0.0,0.0,0.0,-0.132208690839,-0.163886416762,-0.145822259004,0.000169,0.0,0.0,0.0,0.000169,0.0,0.0,0.0,0.000169,0.36297,0.05886,9.74133,0.006889,0.0,0.0,0.0,0.006889,0.0,0.0,0.0,0.006889
1421850640458992004,351201,1421850640458992004,fcu,-0.00797581116862,-0.0168458613608,-0.717800590494,0.695999221033,0.0,0.0,0.0,0.0,0.0,0.0,0.0,0.0,0.0,-0.0204203522483,-0.206297917586,-0.166766210028,0.000169,0.0,0.0,0.0,0.000169,0.0,0.0,0.0,0.000169,0.3924,0.06867,9.80019,0.006889,0.0,0.0,0.0,0.006889,0.0,0.0,0.0,0.006889
1421850640460994005,351202,1421850640460994005,fcu,-0.00810259928176,-0.0169666002347,-0.717858332125,0.695935268082,0.0,0.0,0.0,0.0,0.0,0.0,0.0,0.0,0.0,0.10471975512,-0.261799387799,-0.147654854719,0.000169,0.0,0.0,0.0,0.000169,0.0,0.0,0.0,0.000169,0.3924,0.06867,9.80019,0.006889,0.0,0.0,0.0,0.006889,0.0,0.0,0.0,0.006889
1421850640464993954,351204,1421850640464993954,fcu,-0.00767253164438,-0.0172830903864,-0.717729405686,0.696065318242,0.0,0.0,0.0,0.0,0.0,0.0,0.0,0.0,0.0,0.0159697626557,0.253160008002,0.120951317163,0.000169,0.0,0.0,0.0,0.000169,0.0,0.0,0.0,0.000169,0.35316,-0.10791,9.95715,0.006889,0.0,0.0,0.0,0.006889,0.0,0.0,0.0,0.006889
1421850640466995955,351205,1421850640466995955,fcu,-0.00760988284633,-0.0172223626979,-0.717730931148,0.696065938241,0.0,0.0,0.0,0.0,0.0,0.0,0.0,0.0,0.0,-0.0248709418409,0.118856922061,0.0714712328692,0.000169,0.0,0.0,0.0,0.000169,0.0,0.0,0.0,0.000169,0.45126,0.03924,9.95715,0.006889,0.0,0.0,0.0,0.006889,0.0,0.0,0.0,0.006889
1421850640478997946,351211,1421850640478997946,fcu,-0.00761785402812,-0.0178398288381,-0.71765478773,0.696128805937,0.0,0.0,0.0,0.0,0.0,0.0,0.0,0.0,0.0,0.0308923277603,0.001308996939,0.0892735912395,0.000169,0.0,0.0,0.0,0.000169,0.0,0.0,0.0,0.000169,0.47088,-0.02943,10.02582,0.006889,0.0,0.0,0.0,0.006889,0.0,0.0,0.0,0.006889
1421850640480999947,351212,1421850640480999947,fcu,-0.00805413990922,-0.0180175304523,-0.71771073818,0.696061632133,0.0,0.0,0.0,0.0,0.0,0.0,0.0,0.0,0.0,-0.173311194723,-0.214937297383,-0.0918915851175,0.000169,0.0,0.0,0.0,0.000169,0.0,0.0,0.0,0.000169,0.47088,-0.02943,10.02582,0.006889,0.0,0.0,0.0,0.006889,0.0,0.0,0.0,0.006889
1421850640489001989,351216,1421850640489001989,fcu,-0.00787032237302,-0.0182061129491,-0.717645250855,0.696126345861,0.0,0.0,0.0,0.0,0.0,0.0,0.0,0.0,0.0,0.00863937979737,0.138753675534,0.0539306738866,0.000169,0.0,0.0,0.0,0.000169,0.0,0.0,0.0,0.000169,0.40221,-0.11772,9.99639,0.006889,0.0,0.0,0.0,0.006889,0.0,0.0,0.0,0.006889
1421850640491001844,351217,1421850640491001844,fcu,-0.00805476317855,-0.0182656516054,-0.717582867277,0.696186983039,0.0,0.0,0.0,0.0,0.0,0.0,0.0,0.0,0.0,-0.0989601685881,-0.204727121259,-0.0382227106187,0.000169,0.0,0.0,0.0,0.000169,0.0,0.0,0.0,0.000169,0.40221,-0.11772,9.99639,0.006889,0.0,0.0,0.0,0.006889,0.0,0.0,0.0,0.006889
1421850640499003887,351221,1421850640499003887,fcu,-0.00800318781311,-0.0188209976586,-0.717628971669,0.696125260318,0.0,0.0,0.0,0.0,0.0,0.0,0.0,0.0,0.0,0.309185076991,0.0659734457254,-0.0209439510239,0.000169,0.0,0.0,0.0,0.000169,0.0,0.0,0.0,0.000169,0.43164,-0.0981,9.97677,0.006889,0.0,0.0,0.0,0.006889,0.0,0.0,0.0,0.006889
1421850640501003981,351222,1421850640501003981,fcu,-0.00793890748199,-0.0187609608237,-0.717569880876,0.69618852774,0.0,0.0,0.0,0.0,0.0,0.0,0.0,0.0,0.0,-0.0513126800086,-0.110217542263,0.0123045712266,0.000169,0.0,0.0,0.0,0.000169,0.0,0.0,0.0,0.000169,0.43164,-0.0981,9.97677,0.006889,0.0,0.0,0.0,0.006889,0.0,0.0,0.0,0.006889
1421850640509007931,351226,1421850640509007931,fcu,-0.0079428898521,-0.0191317165293,-0.717499142942,0.696251296445,0.0,0.0,0.0,0.0,0.0,0.0,0.0,0.0,0.0,0.341648201078,0.0243473430653,-0.0198967534727,0.000169,0.0,0.0,0.0,0.000169,0.0,0.0,0.0,0.000169,0.35316,0.00981,9.78057,0.006889,0.0,0.0,0.0,0.006889,0.0,0.0,0.0,0.006889
1421850640511008024,351227,1421850640511008024,fcu,-0.00781969044118,-0.0192576259316,-0.717435030659,0.696315282805,0.0,0.0,0.0,0.0,0.0,0.0,0.0,0.0,0.0,0.00445058959259,-0.0439822971503,0.05471607205,0.000169,0.0,0.0,0.0,0.000169,0.0,0.0,0.0,0.000169,0.42183,-0.02943,9.98658,0.006889,0.0,0.0,0.0,0.006889,0.0,0.0,0.0,0.006889
1421850640513007879,351228,1421850640513007879,fcu,-0.00781969044118,-0.0192576259316,-0.717435030659,0.696315282805,0.0,0.0,0.0,0.0,0.0,0.0,0.0,0.0,0.0,-0.0146607657168,-0.0670206432766,0.0151843644924,0.000169,0.0,0.0,0.0,0.000169,0.0,0.0,0.0,0.000169,0.42183,-0.02943,9.98658,0.006889,0.0,0.0,0.0,0.006889,0.0,0.0,0.0,0.006889
1421850640515007973,351229,1421850640515007973,fcu,-0.00794308268331,-0.0192557629252,-0.717435010662,0.696313958289,0.0,0.0,0.0,0.0,0.0,0.0,0.0,0.0,0.0,0.00366519142919,0.000523598775598,0.0259181393921,0.000169,0.0,0.0,0.0,0.000169,0.0,0.0,0.0,0.000169,0.34335,0.0981,9.81,0.006889,0.0,0.0,0.0,0.006889,0.0,0.0,0.0,0.006889
1421850640517009974,351230,1421850640517009974,fcu,-0.00788231779714,-0.0193183708674,-0.717433327547,0.696314648803,0.0,0.0,0.0,0.0,0.0,0.0,0.0,0.0,0.0,0.0761836218496,-0.0411025038845,0.0196349540849,0.000169,0.0,0.0,0.0,0.000169,0.0,0.0,0.0,0.000169,0.34335,0.0981,9.81,0.006889,0.0,0.0,0.0,0.006889,0.0,0.0,0.0,0.006889
1421850640519009829,351231,1421850640519009829,fcu,-0.00794494509307,-0.0193791156561,-0.717431618972,0.696314009498,0.0,0.0,0.0,0.0,0.0,0.0,0.0,0.0,0.0,0.144775061453,-0.0767072206252,-0.046862090416,0.000169,0.0,0.0,0.0,0.000169,0.0,0.0,0.0,0.000169,0.36297,-0.01962,9.9081,0.006889,0.0,0.0,0.0,0.006889,0.0,0.0,0.0,0.006889
1421850640523011923,351233,1421850640523011923,fcu,-0.00764298242221,-0.019815503035,-0.717419627903,0.696317462196,0.0,0.0,0.0,0.0,0.0,0.0,0.0,0.0,0.0,0.0950331777711,-0.0960803753223,0.0287979326579,0.000169,0.0,0.0,0.0,0.000169,0.0,0.0,0.0,0.000169,0.3924,-0.00981,9.96696,0.006889,0.0,0.0,0.0,0.006889,0.0,0.0,0.0,0.006889
1421850640525012016,351234,1421850640525012016,fcu,-0.00764125316426,-0.0198161699356,-0.717358860009,0.696380066218,0.0,0.0,0.0,0.0,0.0,0.0,0.0,0.0,0.0,0.0418879020479,-0.061261056745,0.0141371669412,0.000169,0.0,0.0,0.0,0.000169,0.0,0.0,0.0,0.000169,0.3924,-0.00981,9.96696,0.006889,0.0,0.0,0.0,0.006889,0.0,0.0,0.0,0.006889
1421850640529011965,351236,1421850640529011965,fcu,-0.00776464591102,-0.0198143176922,-0.717358840612,0.696378774005,0.0,0.0,0.0,0.0,0.0,0.0,0.0,0.0,0.0,-0.0225147473507,-0.0895353906273,-0.00235619449019,0.000169,0.0,0.0,0.0,0.000169,0.0,0.0,0.0,0.000169,0.34335,0.07848,9.81981,0.006889,0.0,0.0,0.0,0.006889,0.0,0.0,0.0,0.006889
1421850640531013966,351237,1421850640531013966,fcu,-0.00776834911114,-0.0200610174634,-0.717351841935,0.696378879062,0.0,0.0,0.0,0.0,0.0,0.0,0.0,0.0,0.0,0.100269165527,-0.16886060513,-0.0662352451132,0.000169,0.0,0.0,0.0,0.000169,0.0,0.0,0.0,0.000169,0.34335,0.07848,9.81981,0.006889,0.0,0.0,0.0,0.006889,0.0,0.0,0.0,0.006889
1421850640535013914,351239,1421850640535013914,fcu,-0.0075878888551,-0.0203721670838,-0.717343001466,0.696380942444,0.0,0.0,0.0,0.0,0.0,0.0,0.0,0.0,0.0,0.0295833308213,0.0164933614313,-0.0149225651046,0.000169,0.0,0.0,0.0,0.000169,0.0,0.0,0.0,0.000169,0.36297,-0.03924,9.99639,0.006889,0.0,0.0,0.0,0.006889,0.0,0.0,0.0,0.006889
1421850640537015915,351240,1421850640537015915,fcu,-0.0075878888551,-0.0203721670838,-0.717343001466,0.696380942444,0.0,0.0,0.0,0.0,0.0,0.0,0.0,0.0,0.0,-0.010471975512,0.0722566310326,0.0285361332701,0.000169,0.0,0.0,0.0,0.000169,0.0,0.0,0.0,0.000169,0.35316,0.01962,9.93753,0.006889,0.0,0.0,0.0,0.006889,0.0,0.0,0.0,0.006889
1421850640539016008,351241,1421850640539016008,fcu,-0.00758611101926,-0.0203728291744,-0.717282228033,0.696443539779,0.0,0.0,0.0,0.0,0.0,0.0,0.0,0.0,0.0,0.0641408500108,0.0146607657168,0.0363901149041,0.000169,0.0,0.0,0.0,0.000169,0.0,0.0,0.0,0.000169,0.35316,0.01962,9.93753,0.006889,0.0,0.0,0.0,0.006889,0.0,0.0,0.0,0.006889
1421850640541015863,351242,1421850640541015863,fcu,-0.00759159197157,-0.0206188612822,-0.717335809033,0.696381050409,0.0,0.0,0.0,0.0,0.0,0.0,0.0,0.0,0.0,0.0835140047079,-0.147916654107,-0.0769690200129,0.000169,0.0,0.0,0.0,0.000169,0.0,0.0,0.0,0.000169,0.36297,0.03924,9.82962,0.006889,0.0,0.0,0.0,0.006889,0.0,0.0,0.0,0.006889
1421850640545017958,351244,1421850640545017958,fcu,-0.00753452430086,-0.0209281515988,-0.717326706895,0.69638181983,0.0,0.0,0.0,0.0,0.0,0.0,0.0,0.0,0.0,0.0952949771589,-0.00890117918517,-0.00811578102177,0.000169,0.0,0.0,0.0,0.000169,0.0,0.0,0.0,0.000169,0.36297,0.03924,9.82962,0.006889,0.0,0.0,0.0,0.006889,0.0,0.0,0.0,0.006889
1421850640547018051,351245,1421850640547018051,fcu,-0.00753452430086,-0.0209281515988,-0.717326706895,0.69638181983,0.0,0.0,0.0,0.0,0.0,0.0,0.0,0.0,0.0,0.0837758040957,0.0696386371546,-0.00968657734857,0.000169,0.0,0.0,0.0,0.000169,0.0,0.0,0.0,0.000169,0.40221,-0.02943,9.97677,0.006889,0.0,0.0,0.0,0.006889,0.0,0.0,0.0,0.006889
1421850640549017906,351246,1421850640549017906,fcu,-0.00747008091621,-0.0208680571704,-0.71726777584,0.696445015649,0.0,0.0,0.0,0.0,0.0,0.0,0.0,0.0,0.0,-0.0714712328692,0.0746128255228,0.0937241808321,0.000169,0.0,0.0,0.0,0.000169,0.0,0.0,0.0,0.000169,0.40221,-0.02943,9.97677,0.006889,0.0,0.0,0.0,0.006889,0.0,0.0,0.0,0.006889
1421850640551019907,351247,1421850640551019907,fcu,-0.00740747802289,-0.0209312970165,-0.717205172946,0.696508255496,0.0,0.0,0.0,0.0,0.0,0.0,0.0,0.0,0.0,0.107337748998,-0.05471607205,0.000785398163397,0.000169,0.0,0.0,0.0,0.000169,0.0,0.0,0.0,0.000169,0.40221,0.04905,9.84924,0.006889,0.0,0.0,0.0,0.006889,0.0,0.0,0.0,0.006889
1421850640553020000,351248,1421850640553020000,fcu,-0.0074737624287,-0.0211147466096,-0.717260411174,0.696445125557,0.0,0.0,0.0,0.0,0.0,0.0,0.0,0.0,0.0,0.0337721210261,-0.142942465738,-0.0751364242984,0.000169,0.0,0.0,0.0,0.000169,0.0,0.0,0.0,0.000169,0.40221,0.04905,9.84924,0.006889,0.0,0.0,0.0,0.006889,0.0,0.0,0.0,0.006889
1421850640555019855,351249,1421850640555019855,fcu,-0.00741482683478,-0.0213006827352,-0.717254840446,0.696445830711,0.0,0.0,0.0,0.0,0.0,0.0,0.0,0.0,0.0,0.233263254529,-0.164933614313,0.0555014702134,0.000169,0.0,0.0,0.0,0.000169,0.0,0.0,0.0,0.000169,0.40221,0.04905,9.84924,0.006889,0.0,0.0,0.0,0.006889,0.0,0.0,0.0,0.006889
1421850640559021950,351251,1421850640559021950,fcu,-0.0074755797374,-0.0213620859118,-0.717192181356,0.696507826227,0.0,0.0,0.0,0.0,0.0,0.0,0.0,0.0,0.0,0.0400553063333,0.061261056745,0.00785398163397,0.000169,0.0,0.0,0.0,0.000169,0.0,0.0,0.0,0.000169,0.38259,-0.03924,9.91791,0.006889,0.0,0.0,0.0,0.006889,0.0,0.0,0.0,0.006889
1421850640561022043,351252,1421850640561022043,fcu,-0.00734850253108,-0.0212412147242,-0.717135151277,0.696571593672,0.0,0.0,0.0,0.0,0.0,0.0,0.0,0.0,0.0,-0.0761836218496,0.0966039740979,0.0863937979737,0.000169,0.0,0.0,0.0,0.000169,0.0,0.0,0.0,0.000169,0.40221,0.04905,9.85905,0.006889,0.0,0.0,0.0,0.006889,0.0,0.0,0.0,0.006889
1421850640563021898,351253,1421850640563021898,fcu,-0.00735032173572,-0.0213645581453,-0.717131415116,0.696571648777,0.0,0.0,0.0,0.0,0.0,0.0,0.0,0.0,0.0,0.169384203906,-0.142418866963,-0.0293215314335,0.000169,0.0,0.0,0.0,0.000169,0.0,0.0,0.0,0.000169,0.40221,0.04905,9.85905,0.006889,0.0,0.0,0.0,0.006889,0.0,0.0,0.0,0.006889
1421850640565023899,351254,1421850640565023899,fcu,-0.00741286693762,-0.0215493090521,-0.717064971389,0.696633693909,0.0,0.0,0.0,0.0,0.0,0.0,0.0,0.0,0.0,0.0455530934771,-0.0604756585816,0.0366519142919,0.000169,0.0,0.0,0.0,0.000169,0.0,0.0,0.0,0.000169,0.35316,0.0,9.83943,0.006889,0.0,0.0,0.0,0.006889,0.0,0.0,0.0,0.006889
1421850640567023993,351255,1421850640567023993,fcu,-0.00729308971603,-0.0217978014442,-0.717057387892,0.696635032972,0.0,0.0,0.0,0.0,0.0,0.0,0.0,0.0,0.0,0.196349540849,-0.148963851658,0.0191113553093,0.000169,0.0,0.0,0.0,0.000169,0.0,0.0,0.0,0.000169,0.35316,0.0,9.83943,0.006889,0.0,0.0,0.0,0.006889,0.0,0.0,0.0,0.006889
1421850640569023848,351256,1421850640569023848,fcu,-0.00729308971603,-0.0217978014442,-0.717057387892,0.696635032972,0.0,0.0,0.0,0.0,0.0,0.0,0.0,0.0,0.0,0.0806342114421,0.00209439510239,0.0154461638801,0.000169,0.0,0.0,0.0,0.000169,0.0,0.0,0.0,0.000169,0.36297,-0.01962,9.92772,0.006889,0.0,0.0,0.0,0.006889,0.0,0.0,0.0,0.006889
1421850640571023941,351257,1421850640571023941,fcu,-0.00722859146936,-0.0217376663783,-0.716998509564,0.696698183296,0.0,0.0,0.0,0.0,0.0,0.0,0.0,0.0,0.0,0.0565486677646,0.104457955732,0.0840376034835,0.000169,0.0,0.0,0.0,0.000169,0.0,0.0,0.0,0.000169,0.36297,-0.01962,9.92772,0.006889,0.0,0.0,0.0,0.006889,0.0,0.0,0.0,0.006889
1421850640573025942,351258,1421850640573025942,fcu,-0.00722859146936,-0.0217376663783,-0.716998509564,0.696698183296,0.0,0.0,0.0,0.0,0.0,0.0,0.0,0.0,0.0,0.0159697626557,0.00916297857297,-0.0149225651046,0.000169,0.0,0.0,0.0,0.000169,0.0,0.0,0.0,0.000169,0.36297,-0.01962,9.92772,0.006889,0.0,0.0,0.0,0.006889,0.0,0.0,0.0,0.006889
1421850640575026035,351259,1421850640575026035,fcu,-0.00710699458797,-0.0218628058939,-0.716994704705,0.696699434312,0.0,0.0,0.0,0.0,0.0,0.0,0.0,0.0,0.0,0.0243473430653,-0.0811578102177,0.0123045712266,0.000169,0.0,0.0,0.0,0.000169,0.0,0.0,0.0,0.000169,0.37278,0.06867,9.79038,0.006889,0.0,0.0,0.0,0.006889,0.0,0.0,0.0,0.006889
1421850640577025890,351260,1421850640577025890,fcu,-0.00716959068976,-0.0219235769833,-0.716992776821,0.696698867322,0.0,0.0,0.0,0.0,0.0,0.0,0.0,0.0,0.0,-0.0921533845053,-0.0947713783833,0.0617846555206,0.000169,0.0,0.0,0.0,0.000169,0.0,0.0,0.0,0.000169,0.37278,0.06867,9.79038,0.006889,0.0,0.0,0.0,0.006889,0.0,0.0,0.0,0.006889
1421850640579027891,351261,1421850640579027891,fcu,-0.00716946433002,-0.0220475428144,-0.71692812107,0.696761489934,0.0,0.0,0.0,0.0,0.0,0.0,0.0,0.0,0.0,0.206297917586,-0.0455530934771,-0.001308996939,0.000169,0.0,0.0,0.0,0.000169,0.0,0.0,0.0,0.000169,0.32373,0.0,9.83943,0.006889,0.0,0.0,0.0,0.006889,0.0,0.0,0.0,0.006889
1421850640583027840,351263,1421850640583027840,fcu,-0.00704414535574,-0.0220499452666,-0.716867331487,0.696825235605,0.0,0.0,0.0,0.0,0.0,0.0,0.0,0.0,0.0,0.066497044501,0.0159697626557,0.0861319985859,0.000169,0.0,0.0,0.0,0.000169,0.0,0.0,0.0,0.000169,0.36297,0.02943,9.92772,0.006889,0.0,0.0,0.0,0.006889,0.0,0.0,0.0,0.006889
1421850640585027933,351264,1421850640585027933,fcu,-0.00698511193813,-0.0222358430506,-0.716861517666,0.69682590364,0.0,0.0,0.0,0.0,0.0,0.0,0.0,0.0,0.0,0.0735656279716,-0.0921533845053,-0.0672824426644,0.000169,0.0,0.0,0.0,0.000169,0.0,0.0,0.0,0.000169,0.36297,0.02943,9.92772,0.006889,0.0,0.0,0.0,0.006889,0.0,0.0,0.0,0.006889
1421850640589030027,351266,1421850640589030027,fcu,-0.00711028304964,-0.0223574048784,-0.716857592367,0.696824786146,0.0,0.0,0.0,0.0,0.0,0.0,0.0,0.0,0.0,0.141109870024,-0.161268422884,0.0138753675534,0.000169,0.0,0.0,0.0,0.000169,0.0,0.0,0.0,0.000169,0.2943,0.05886,9.80019,0.006889,0.0,0.0,0.0,0.006889,0.0,0.0,0.0,0.006889
1421850640591029882,351267,1421850640591029882,fcu,-0.0068652688319,-0.0224842966765,-0.716853695937,0.69682716875,0.0,0.0,0.0,0.0,0.0,0.0,0.0,0.0,0.0,0.1308996939,0.103672557568,-0.00733038285838,0.000169,0.0,0.0,0.0,0.000169,0.0,0.0,0.0,0.000169,0.30411,0.0,9.91791,0.006889,0.0,0.0,0.0,0.006889,0.0,0.0,0.0,0.006889
1421850640593031883,351268,1421850640593031883,fcu,-0.00680072625903,-0.0224241097536,-0.716794859351,0.696890263264,0.0,0.0,0.0,0.0,0.0,0.0,0.0,0.0,0.0,0.134303085941,0.104196156344,0.103148958793,0.000169,0.0,0.0,0.0,0.000169,0.0,0.0,0.0,0.000169,0.30411,0.0,9.91791,0.006889,0.0,0.0,0.0,0.006889,0.0,0.0,0.0,0.006889
1421850640595031977,351269,1421850640595031977,fcu,-0.00667712804433,-0.0225497964902,-0.716730116708,0.696953988756,0.0,0.0,0.0,0.0,0.0,0.0,0.0,0.0,0.0,0.136135681656,-0.0452912940893,-0.00392699081699,0.000169,0.0,0.0,0.0,0.000169,0.0,0.0,0.0,0.000169,0.30411,0.0,9.91791,0.006889,0.0,0.0,0.0,0.006889,0.0,0.0,0.0,0.006889
1421850640597031832,351270,1421850640597031832,fcu,-0.00667909585988,-0.022549213715,-0.716790934688,0.6968914396,0.0,0.0,0.0,0.0,0.0,0.0,0.0,0.0,0.0,0.123569311041,-0.0641408500108,-0.0358665161285,0.000169,0.0,0.0,0.0,0.000169,0.0,0.0,0.0,0.000169,0.32373,0.04905,9.93753,0.006889,0.0,0.0,0.0,0.006889,0.0,0.0,0.0,0.006889
1421850640599031925,351271,1421850640599031925,fcu,-0.00680425683847,-0.0226707847413,-0.716786956441,0.696890376375,0.0,0.0,0.0,0.0,0.0,0.0,0.0,0.0,0.0,-0.0290597320457,-0.0782780169519,-0.059952059806,0.000169,0.0,0.0,0.0,0.000169,0.0,0.0,0.0,0.000169,0.32373,0.04905,9.93753,0.006889,0.0,0.0,0.0,0.006889,0.0,0.0,0.0,0.006889
1421850640601033926,351272,1421850640601033926,fcu,-0.00680602211333,-0.0227941211969,-0.716782972696,0.696890433393,0.0,0.0,0.0,0.0,0.0,0.0,0.0,0.0,0.0,0.149225651046,-0.100792764303,0.0363901149041,0.000169,0.0,0.0,0.0,0.000169,0.0,0.0,0.0,0.000169,0.27468,0.02943,9.88848,0.006889,0.0,0.0,0.0,0.006889,0.0,0.0,0.0,0.006889
1421850640603034019,351273,1421850640603034019,fcu,-0.00674321227794,-0.0228572607678,-0.71672016286,0.696953572964,0.0,0.0,0.0,0.0,0.0,0.0,0.0,0.0,0.0,0.172787595947,0.00706858347058,0.0722566310326,0.000169,0.0,0.0,0.0,0.000169,0.0,0.0,0.0,0.000169,0.27468,0.02943,9.88848,0.006889,0.0,0.0,0.0,0.006889,0.0,0.0,0.0,0.006889
1421850640605033875,351274,1421850640605033875,fcu,-0.0065532618957,-0.0227993698664,-0.716600533815,0.697080281193,0.0,0.0,0.0,0.0,0.0,0.0,0.0,0.0,0.0,0.0439822971503,0.120165919,0.113620934305,0.000169,0.0,0.0,0.0,0.000169,0.0,0.0,0.0,0.000169,0.37278,0.02943,9.99639,0.006889,0.0,0.0,0.0,0.006889,0.0,0.0,0.0,0.006889
1421850640607035875,351275,1421850640607035875,fcu,-0.00649243014053,-0.0228619049732,-0.716598541466,0.697080850419,0.0,0.0,0.0,0.0,0.0,0.0,0.0,0.0,0.0,0.0986983692003,0.0879645943005,0.0709476340936,0.000169,0.0,0.0,0.0,0.000169,0.0,0.0,0.0,0.000169,0.37278,0.02943,9.99639,0.006889,0.0,0.0,0.0,0.006889,0.0,0.0,0.0,0.006889
1421850640609035969,351276,1421850640609035969,fcu,-0.00649243014053,-0.0228619049732,-0.716598541466,0.697080850419,0.0,0.0,0.0,0.0,0.0,0.0,0.0,0.0,0.0,-0.0761836218496,-0.0390081087821,-0.0455530934771,0.000169,0.0,0.0,0.0,0.000169,0.0,0.0,0.0,0.000169,0.31392,0.0981,9.77076,0.006889,0.0,0.0,0.0,0.006889,0.0,0.0,0.0,0.006889
1421850640611035824,351277,1421850640611035824,fcu,-0.0068663572157,-0.022979440267,-0.716655307428,0.697015042017,0.0,0.0,0.0,0.0,0.0,0.0,0.0,0.0,0.0,-0.0913679863419,-0.283266937599,-0.0604756585816,0.000169,0.0,0.0,0.0,0.000169,0.0,0.0,0.0,0.000169,0.31392,0.0981,9.77076,0.006889,0.0,0.0,0.0,0.006889,0.0,0.0,0.0,0.006889
1421850640617038012,351280,1421850640617038012,fcu,-0.00661899822326,-0.0232307543432,-0.71652557903,0.697142464286,0.0,0.0,0.0,0.0,0.0,0.0,0.0,0.0,0.0,0.0850848010347,0.204988920647,0.120689517775,0.000169,0.0,0.0,0.0,0.000169,0.0,0.0,0.0,0.000169,0.34335,-0.00981,10.0062,0.006889,0.0,0.0,0.0,0.006889,0.0,0.0,0.0,0.006889
1421850640619037867,351281,1421850640619037867,fcu,-0.00649357419066,-0.0232330441564,-0.716464754237,0.697206077921,0.0,0.0,0.0,0.0,0.0,0.0,0.0,0.0,0.0,0.0620464549084,0.236404847183,0.066497044501,0.000169,0.0,0.0,0.0,0.000169,0.0,0.0,0.0,0.000169,0.34335,-0.00981,10.0062,0.006889,0.0,0.0,0.0,0.006889,0.0,0.0,0.0,0.006889
1421850640621039867,351282,1421850640621039867,fcu,-0.0065564388584,-0.0231699486543,-0.716527618905,0.697142982419,0.0,0.0,0.0,0.0,0.0,0.0,0.0,0.0,0.0,-0.100007366139,-0.235881248407,-0.075660023074,0.000169,0.0,0.0,0.0,0.000169,0.0,0.0,0.0,0.000169,0.35316,0.08829,9.78057,0.006889,0.0,0.0,0.0,0.006889,0.0,0.0,0.0,0.006889
1421850640623039961,351283,1421850640623039961,fcu,-0.00661899822326,-0.0232307543432,-0.71652557903,0.697142464286,0.0,0.0,0.0,0.0,0.0,0.0,0.0,0.0,0.0,0.0337721210261,-0.22724186861,-0.0274889357189,0.000169,0.0,0.0,0.0,0.000169,0.0,0.0,0.0,0.000169,0.35316,0.08829,9.78057,0.006889,0.0,0.0,0.0,0.006889,0.0,0.0,0.0,0.006889
1421850640625040054,351284,1421850640625040054,fcu,-0.00649528560573,-0.0233563782036,-0.7164606736,0.697206134545,0.0,0.0,0.0,0.0,0.0,0.0,0.0,0.0,0.0,0.268606171882,0.061261056745,0.0675442420522,0.000169,0.0,0.0,0.0,0.000169,0.0,0.0,0.0,0.000169,0.31392,0.04905,9.81981,0.006889,0.0,0.0,0.0,0.006889,0.0,0.0,0.0,0.006889
1421850640627039909,351285,1421850640627039909,fcu,-0.00637188867612,-0.0233580904912,-0.716460688393,0.697207200644,0.0,0.0,0.0,0.0,0.0,0.0,0.0,0.0,0.0,0.294262511886,0.140062672473,0.0609992573572,0.000169,0.0,0.0,0.0,0.000169,0.0,0.0,0.0,0.000169,0.31392,0.04905,9.81981,0.006889,0.0,0.0,0.0,0.006889,0.0,0.0,0.0,0.006889
1421850640633041859,351288,1421850640633041859,fcu,-0.00618525045462,-0.0235467385467,-0.716332851896,0.697333879196,0.0,0.0,0.0,0.0,0.0,0.0,0.0,0.0,0.0,-0.056025068989,-0.23666664657,-0.0301069295969,0.000169,0.0,0.0,0.0,0.000169,0.0,0.0,0.0,0.000169,0.40221,-0.00981,10.0062,0.006889,0.0,0.0,0.0,0.006889,0.0,0.0,0.0,0.006889
1421850640635043859,351289,1421850640635043859,fcu,-0.00630659323902,-0.0235455982359,-0.716271981233,0.697395354577,0.0,0.0,0.0,0.0,0.0,0.0,0.0,0.0,0.0,0.0997455667515,0.0,0.0722566310326,0.000169,0.0,0.0,0.0,0.000169,0.0,0.0,0.0,0.000169,0.31392,0.08829,9.75114,0.006889,0.0,0.0,0.0,0.006889,0.0,0.0,0.0,0.006889
1421850640643045902,351293,1421850640643045902,fcu,-0.00581428290727,-0.0237994903512,-0.716202883002,0.697461976564,0.0,0.0,0.0,0.0,0.0,0.0,0.0,0.0,0.0,0.0230383461263,-0.158388629618,0.000523598775598,0.000169,0.0,0.0,0.0,0.000169,0.0,0.0,0.0,0.000169,0.35316,0.07848,9.79038,0.006889,0.0,0.0,0.0,0.006889,0.0,0.0,0.0,0.006889
1421850640645045996,351294,1421850640645045996,fcu,-0.0059393495457,-0.0239211525207,-0.71619869237,0.697461063886,0.0,0.0,0.0,0.0,0.0,0.0,0.0,0.0,0.0,-0.0374373124553,-0.00418879020479,0.0808960108299,0.000169,0.0,0.0,0.0,0.000169,0.0,0.0,0.0,0.000169,0.35316,0.07848,9.79038,0.006889,0.0,0.0,0.0,0.006889,0.0,0.0,0.0,0.006889
1421850640649047852,351296,1421850640649047852,fcu,-0.00581552109135,-0.02404666,-0.716133638656,0.69752458698,0.0,0.0,0.0,0.0,0.0,0.0,0.0,0.0,0.0,0.322798645156,-0.0183259571459,-0.0505272818452,0.000169,0.0,0.0,0.0,0.000169,0.0,0.0,0.0,0.000169,0.37278,0.05886,9.93753,0.006889,0.0,0.0,0.0,0.006889,0.0,0.0,0.0,0.006889
1421850640651047945,351297,1421850640651047945,fcu,-0.00551162546056,-0.0242353200959,-0.716188199003,0.697464504368,0.0,0.0,0.0,0.0,0.0,0.0,0.0,0.0,0.0,0.209963109015,0.069115038379,-0.0502654824574,0.000169,0.0,0.0,0.0,0.000169,0.0,0.0,0.0,0.000169,0.37278,0.05886,9.93753,0.006889,0.0,0.0,0.0,0.006889,0.0,0.0,0.0,0.006889
1421850640655047894,351299,1421850640655047894,fcu,-0.00550739551532,-0.0242362816869,-0.716066457576,0.697589492166,0.0,0.0,0.0,0.0,0.0,0.0,0.0,0.0,0.0,-0.0439822971503,-0.136135681656,0.0816814089933,0.000169,0.0,0.0,0.0,0.000169,0.0,0.0,0.0,0.000169,0.43164,-0.00981,10.08468,0.006889,0.0,0.0,0.0,0.006889,0.0,0.0,0.0,0.006889
1421850640657049894,351300,1421850640657049894,fcu,-0.00550739551532,-0.0242362816869,-0.716066457576,0.697589492166,0.0,0.0,0.0,0.0,0.0,0.0,0.0,0.0,0.0,-0.0447676953137,-0.0630936524596,0.0795870138909,0.000169,0.0,0.0,0.0,0.000169,0.0,0.0,0.0,0.000169,0.34335,0.10791,9.79038,0.006889,0.0,0.0,0.0,0.006889,0.0,0.0,0.0,0.006889
1421850640667052031,351305,1421850640667052031,fcu,-0.00519872952454,-0.0245496300269,-0.715934050691,0.697716793505,0.0,0.0,0.0,0.0,0.0,0.0,0.0,0.0,0.0,-0.13561208288,-0.144513262065,0.146607657168,0.000169,0.0,0.0,0.0,0.000169,0.0,0.0,0.0,0.000169,0.38259,0.07848,9.78057,0.006889,0.0,0.0,0.0,0.006889,0.0,0.0,0.0,0.006889
1421850640669051886,351306,1421850640669051886,fcu,-0.0053199869798,-0.0245484682158,-0.71587314941,0.697778406373,0.0,0.0,0.0,0.0,0.0,0.0,0.0,0.0,0.0,-0.171740398396,-0.074351026135,0.117547925122,0.000169,0.0,0.0,0.0,0.000169,0.0,0.0,0.0,0.000169,0.38259,0.07848,9.78057,0.006889,0.0,0.0,0.0,0.006889,0.0,0.0,0.0,0.006889
1421850640673053980,351308,1421850640673053980,fcu,-0.0053237544275,-0.0246713313926,-0.715929732645,0.697715988752,0.0,0.0,0.0,0.0,0.0,0.0,0.0,0.0,0.0,0.256825199431,-0.108123147161,-0.0903207887907,0.000169,0.0,0.0,0.0,0.000169,0.0,0.0,0.0,0.000169,0.3924,0.04905,10.03563,0.006889,0.0,0.0,0.0,0.006889,0.0,0.0,0.0,0.006889
1421850640675053835,351309,1421850640675053835,fcu,-0.00520197993455,-0.0247962843266,-0.715925415782,0.697716907296,0.0,0.0,0.0,0.0,0.0,0.0,0.0,0.0,0.0,0.113097335529,0.0510508806208,-0.0387463093943,0.000169,0.0,0.0,0.0,0.000169,0.0,0.0,0.0,0.000169,0.3924,0.04905,10.03563,0.006889,0.0,0.0,0.0,0.006889,0.0,0.0,0.0,0.006889
1421850640685057878,351314,1421850640685057878,fcu,-0.00507527363817,-0.0250458913219,-0.715734019203,0.697905264833,0.0,0.0,0.0,0.0,0.0,0.0,0.0,0.0,0.0,0.243473430653,-0.146869456555,-0.0871791961371,0.000169,0.0,0.0,0.0,0.000169,0.0,0.0,0.0,0.000169,0.42183,0.0981,9.89829,0.006889,0.0,0.0,0.0,0.006889,0.0,0.0,0.0,0.006889
1421850640687057972,351315,1421850640687057972,fcu,-0.00495726629855,-0.0252937017277,-0.715786123719,0.697843735556,0.0,0.0,0.0,0.0,0.0,0.0,0.0,0.0,0.0,0.182735972684,0.00837758040957,-0.0264417381677,0.000169,0.0,0.0,0.0,0.000169,0.0,0.0,0.0,0.000169,0.3924,-0.08829,9.94734,0.006889,0.0,0.0,0.0,0.006889,0.0,0.0,0.0,0.006889
1421850640697059870,351320,1421850640697059870,fcu,-0.00501313028406,-0.0253558744293,-0.715601183708,0.698030725708,0.0,0.0,0.0,0.0,0.0,0.0,0.0,0.0,0.0,0.26049039086,-0.271747764536,-0.145298660229,0.000169,0.0,0.0,0.0,0.000169,0.0,0.0,0.0,0.000169,0.40221,0.11772,9.85905,0.006889,0.0,0.0,0.0,0.006889,0.0,0.0,0.0,0.006889
1421850640699061871,351321,1421850640699061871,fcu,-0.00489352446192,-0.0254803430668,-0.715657659397,0.697969139778,0.0,0.0,0.0,0.0,0.0,0.0,0.0,0.0,0.0,0.191375352481,0.0447676953137,-0.0701622359302,0.000169,0.0,0.0,0.0,0.000169,0.0,0.0,0.0,0.000169,0.3924,-0.06867,9.89829,0.006889,0.0,0.0,0.0,0.006889,0.0,0.0,0.0,0.006889
1421850640703061819,351323,1421850640703061819,fcu,-0.00469942703542,-0.0252989639082,-0.715481583579,0.698157561995,0.0,0.0,0.0,0.0,0.0,0.0,0.0,0.0,0.0,-0.162315620435,0.286932129028,0.219911485751,0.000169,0.0,0.0,0.0,0.000169,0.0,0.0,0.0,0.000169,0.44145,0.13734,9.82962,0.006889,0.0,0.0,0.0,0.006889,0.0,0.0,0.0,0.006889
1421850640705063820,351324,1421850640705063820,fcu,-0.00494467954227,-0.0251725376442,-0.715485978169,0.698155934256,0.0,0.0,0.0,0.0,0.0,0.0,0.0,0.0,0.0,-0.105243353895,-0.21179570473,-0.0680678408278,0.000169,0.0,0.0,0.0,0.000169,0.0,0.0,0.0,0.000169,0.44145,0.13734,9.82962,0.006889,0.0,0.0,0.0,0.006889,0.0,0.0,0.0,0.006889
1421850640715065956,351329,1421850640715065956,fcu,-0.00463254651031,-0.0252388859695,-0.715361935774,0.698282778674,0.0,0.0,0.0,0.0,0.0,0.0,0.0,0.0,0.0,-0.0251327412287,-0.106028752059,-0.0518362787842,0.000169,0.0,0.0,0.0,0.000169,0.0,0.0,0.0,0.000169,0.44145,0.00981,9.88848,0.006889,0.0,0.0,0.0,0.006889,0.0,0.0,0.0,0.006889
1421850640717066050,351330,1421850640717066050,fcu,-0.00475594808099,-0.025237356719,-0.715361926299,0.698282014079,0.0,0.0,0.0,0.0,0.0,0.0,0.0,0.0,0.0,-0.127758101246,-0.252112810451,-0.0751364242984,0.000169,0.0,0.0,0.0,0.000169,0.0,0.0,0.0,0.000169,0.36297,0.04905,9.81981,0.006889,0.0,0.0,0.0,0.006889,0.0,0.0,0.0,0.006889
1421850640727069855,351335,1421850640727069855,fcu,-0.00463489655843,-0.0256092619338,-0.715287656434,0.698345367272,0.0,0.0,0.0,0.0,0.0,0.0,0.0,0.0,0.0,-0.100530964915,-0.278030949843,-0.0541924732744,0.000169,0.0,0.0,0.0,0.000169,0.0,0.0,0.0,0.000169,0.47088,0.06867,9.91791,0.006889,0.0,0.0,0.0,0.006889,0.0,0.0,0.0,0.006889
1421850640729069948,351336,1421850640729069948,fcu,-0.0050088639402,-0.0257275918589,-0.715344076922,0.698280641227,0.0,0.0,0.0,0.0,0.0,0.0,0.0,0.0,0.0,-0.237452044734,-0.365471945368,-0.12487830798,0.000169,0.0,0.0,0.0,0.000169,0.0,0.0,0.0,0.000169,0.47088,0.06867,9.91791,0.006889,0.0,0.0,0.0,0.006889,0.0,0.0,0.0,0.006889
1421850640741073847,351342,1421850640741073847,fcu,-0.00562514118944,-0.0258437580901,-0.715278572827,0.698338758203,0.0,0.0,0.0,0.0,0.0,0.0,0.0,0.0,0.0,0.382227106187,-0.323845842708,-0.107337748998,0.000169,0.0,0.0,0.0,0.000169,0.0,0.0,0.0,0.000169,0.37278,0.03924,9.7119,0.006889,0.0,0.0,0.0,0.006889,0.0,0.0,0.0,0.006889
1421850640743073940,351343,1421850640743073940,fcu,-0.00556571709623,-0.0260294982248,-0.715271771304,0.698339302339,0.0,0.0,0.0,0.0,0.0,0.0,0.0,0.0,0.0,0.420973415581,-0.0879645943005,0.0206821516361,0.000169,0.0,0.0,0.0,0.000169,0.0,0.0,0.0,0.000169,0.37278,0.03924,9.7119,0.006889,0.0,0.0,0.0,0.006889,0.0,0.0,0.0,0.006889
1421850640756078005,351349,1421850640756078005,fcu,-0.00550022149203,-0.02609287773,-0.715147602899,0.698464612821,0.0,0.0,0.0,0.0,0.0,0.0,0.0,0.0,0.0,0.223053078405,0.382750704962,0.0657116463376,0.000169,0.0,0.0,0.0,0.000169,0.0,0.0,0.0,0.000169,0.45126,-0.11772,10.12392,0.006889,0.0,0.0,0.0,0.006889,0.0,0.0,0.0,0.006889
1421850640757077932,351350,1421850640757077932,fcu,-0.00531209994257,-0.0260339267634,-0.715088943521,0.698528323767,0.0,0.0,0.0,0.0,0.0,0.0,0.0,0.0,0.0,0.139277274309,0.477522083346,0.132208690839,0.000169,0.0,0.0,0.0,0.000169,0.0,0.0,0.0,0.000169,0.45126,-0.11772,10.12392,0.006889,0.0,0.0,0.0,0.006889,0.0,0.0,0.0,0.006889
1421850640767079830,351355,1421850640767079830,fcu,-0.00580638166401,-0.0262751281172,-0.715018787304,0.698587172353,0.0,0.0,0.0,0.0,0.0,0.0,0.0,0.0,0.0,0.254207205553,0.0238237442897,-0.0350811179651,0.000169,0.0,0.0,0.0,0.000169,0.0,0.0,0.0,0.000169,0.43164,-0.0981,10.12392,0.006889,0.0,0.0,0.0,0.006889,0.0,0.0,0.0,0.006889
1421850640769081831,351356,1421850640769081831,fcu,-0.0056220173723,-0.0263390005694,-0.715016502846,0.698588613296,0.0,0.0,0.0,0.0,0.0,0.0,0.0,0.0,0.0,0.105766952671,0.118595122673,0.0670206432766,0.000169,0.0,0.0,0.0,0.000169,0.0,0.0,0.0,0.000169,0.43164,-0.0981,10.12392,0.006889,0.0,0.0,0.0,0.006889,0.0,0.0,0.0,0.006889
1421850640773082018,351358,1421850640773082018,fcu,-0.00598845819058,-0.0262117781602,-0.714960099979,0.698648077713,0.0,0.0,0.0,0.0,0.0,0.0,0.0,0.0,0.0,-0.18195057452,-0.234048652692,-0.0361283155163,0.000169,0.0,0.0,0.0,0.000169,0.0,0.0,0.0,0.000169,0.42183,0.07848,9.94734,0.006889,0.0,0.0,0.0,0.006889,0.0,0.0,0.0,0.006889
1421850640775084019,351359,1421850640775084019,fcu,-0.00611185884971,-0.0262103135429,-0.714960088092,0.698647076199,0.0,0.0,0.0,0.0,0.0,0.0,0.0,0.0,0.0,-0.14634585778,-0.0222529479629,-0.0510508806208,0.000169,0.0,0.0,0.0,0.000169,0.0,0.0,0.0,0.000169,0.42183,0.07848,9.94734,0.006889,0.0,0.0,0.0,0.006889,0.0,0.0,0.0,0.006889
1421850640793087959,351368,1421850640793087959,fcu,-0.00629975745582,-0.0266402796577,-0.71488291387,0.698708113602,0.0,0.0,0.0,0.0,0.0,0.0,0.0,0.0,0.0,-0.138753675534,0.0366519142919,0.0777544181763,0.000169,0.0,0.0,0.0,0.000169,0.0,0.0,0.0,0.000169,0.40221,-0.05886,9.99639,0.006889,0.0,0.0,0.0,0.006889,0.0,0.0,0.0,0.006889
1421850640796087980,351369,1421850640796087980,fcu,-0.00666763345929,-0.0266365000968,-0.714821899582,0.698767265551,0.0,0.0,0.0,0.0,0.0,0.0,0.0,0.0,0.0,-0.108646745937,-0.225671072283,0.0293215314335,0.000169,0.0,0.0,0.0,0.000169,0.0,0.0,0.0,0.000169,0.37278,0.15696,9.6138,0.006889,0.0,0.0,0.0,0.006889,0.0,0.0,0.0,0.006889
1421850640799089909,351371,1421850640799089909,fcu,-0.00691821009994,-0.0267563268182,-0.714878176489,0.698702676482,0.0,0.0,0.0,0.0,0.0,0.0,0.0,0.0,0.0,-0.0649262481742,-0.209963109015,-0.0761836218496,0.000169,0.0,0.0,0.0,0.000169,0.0,0.0,0.0,0.000169,0.35316,0.00981,9.84924,0.006889,0.0,0.0,0.0,0.006889,0.0,0.0,0.0,0.006889
1421850640801090002,351372,1421850640801090002,fcu,-0.00680153634715,-0.0271271313533,-0.714925013483,0.69864159835,0.0,0.0,0.0,0.0,0.0,0.0,0.0,0.0,0.0,0.196349540849,-0.0829904059323,-0.0738274273594,0.000169,0.0,0.0,0.0,0.000169,0.0,0.0,0.0,0.000169,0.35316,0.00981,9.84924,0.006889,0.0,0.0,0.0,0.006889,0.0,0.0,0.0,0.006889
1421850640807091951,351375,1421850640807091951,fcu,-0.00722888740167,-0.0269376652409,-0.714871092391,0.698699811537,0.0,0.0,0.0,0.0,0.0,0.0,0.0,0.0,0.0,-0.29138271862,-0.108384946549,0.0515744793964,0.000169,0.0,0.0,0.0,0.000169,0.0,0.0,0.0,0.000169,0.40221,0.14715,9.56475,0.006889,0.0,0.0,0.0,0.006889,0.0,0.0,0.0,0.006889
1421850640809092045,351376,1421850640809092045,fcu,-0.00729131326953,-0.0269985955827,-0.714868724704,0.698699233596,0.0,0.0,0.0,0.0,0.0,0.0,0.0,0.0,0.0,-0.0479092879672,-0.113882733693,-0.0594284610304,0.000169,0.0,0.0,0.0,0.000169,0.0,0.0,0.0,0.000169,0.40221,0.14715,9.56475,0.006889,0.0,0.0,0.0,0.006889,0.0,0.0,0.0,0.006889
1421850640819095850,351381,1421850640819095850,fcu,-0.00809465100308,-0.0272981354381,-0.714795767681,0.698753389209,0.0,0.0,0.0,0.0,0.0,0.0,0.0,0.0,0.0,-0.226718269834,-0.0887499924639,0.0696386371546,0.000169,0.0,0.0,0.0,0.000169,0.0,0.0,0.0,0.000169,0.43164,0.07848,9.78057,0.006889,0.0,0.0,0.0,0.006889,0.0,0.0,0.0,0.006889
1421850640821095943,351382,1421850640821095943,fcu,-0.00815707075286,-0.0273590699921,-0.71479336688,0.698752736059,0.0,0.0,0.0,0.0,0.0,0.0,0.0,0.0,0.0,-0.050789081233,-0.177499984928,-0.0701622359302,0.000169,0.0,0.0,0.0,0.000169,0.0,0.0,0.0,0.000169,0.43164,0.08829,9.73152,0.006889,0.0,0.0,0.0,0.006889,0.0,0.0,0.0,0.006889
1421850640829097986,351386,1421850640829097986,fcu,-0.00871354774079,-0.0276616140764,-0.714720267615,0.698808878201,0.0,0.0,0.0,0.0,0.0,0.0,0.0,0.0,0.0,-0.229074464324,-0.0827286065445,0.0782780169519,0.000169,0.0,0.0,0.0,0.000169,0.0,0.0,0.0,0.000169,0.43164,-0.06867,9.81981,0.006889,0.0,0.0,0.0,0.006889,0.0,0.0,0.0,0.006889
1421850640831099987,351387,1421850640831099987,fcu,-0.00883551276512,-0.0275368714367,-0.714725084592,0.698807346756,0.0,0.0,0.0,0.0,0.0,0.0,0.0,0.0,0.0,-0.0960803753223,0.0293215314335,-0.0240855436775,0.000169,0.0,0.0,0.0,0.000169,0.0,0.0,0.0,0.000169,0.43164,0.12753,9.74133,0.006889,0.0,0.0,0.0,0.006889,0.0,0.0,0.0,0.006889
1421850640833099842,351388,1421850640833099842,fcu,-0.00883694402391,-0.0276601818206,-0.714720250491,0.698807402866,0.0,0.0,0.0,0.0,0.0,0.0,0.0,0.0,0.0,-0.0178023583703,-0.0400553063333,-0.0657116463376,0.000169,0.0,0.0,0.0,0.000169,0.0,0.0,0.0,0.000169,0.43164,0.12753,9.74133,0.006889,0.0,0.0,0.0,0.006889,0.0,0.0,0.0,0.006889
1421850640835099936,351389,1421850640835099936,fcu,-0.00896419570451,-0.0277812769382,-0.714776357098,0.698743589009,0.0,0.0,0.0,0.0,0.0,0.0,0.0,0.0,0.0,0.058643062867,-0.220173285139,-0.0392699081699,0.000169,0.0,0.0,0.0,0.000169,0.0,0.0,0.0,0.000169,0.43164,0.0,9.67266,0.006889,0.0,0.0,0.0,0.006889,0.0,0.0,0.0,0.006889
1421850640837100029,351390,1421850640837100029,fcu,-0.0090280565512,-0.0279655179545,-0.714769024472,0.698742918144,0.0,0.0,0.0,0.0,0.0,0.0,0.0,0.0,0.0,0.141895268187,-0.232739655753,-0.0837758040957,0.000169,0.0,0.0,0.0,0.000169,0.0,0.0,0.0,0.000169,0.43164,0.0,9.67266,0.006889,0.0,0.0,0.0,0.006889,0.0,0.0,0.0,0.006889
1421850640839102030,351391,1421850640839102030,fcu,-0.00909047532932,-0.0280264501942,-0.714766563542,0.698742184923,0.0,0.0,0.0,0.0,0.0,0.0,0.0,0.0,0.0,0.0824668071567,-0.275674755353,0.00314159265359,0.000169,0.0,0.0,0.0,0.000169,0.0,0.0,0.0,0.000169,0.42183,-0.04905,9.75114,0.006889,0.0,0.0,0.0,0.006889,0.0,0.0,0.0,0.006889
1421850640841101885,351392,1421850640841101885,fcu,-0.00939336195644,-0.0279628287913,-0.714647006349,0.698863006084,0.0,0.0,0.0,0.0,0.0,0.0,0.0,0.0,0.0,-0.0575958653158,0.0133517687778,0.0421497014357,0.000169,0.0,0.0,0.0,0.000169,0.0,0.0,0.0,0.000169,0.42183,-0.04905,9.75114,0.006889,0.0,0.0,0.0,0.006889,0.0,0.0,0.0,0.006889
1421850640843101978,351393,1421850640843101978,fcu,-0.00939194148296,-0.027839520404,-0.714651894259,0.698862949777,0.0,0.0,0.0,0.0,0.0,0.0,0.0,0.0,0.0,-0.113097335529,0.0138753675534,0.0107337748998,0.000169,0.0,0.0,0.0,0.000169,0.0,0.0,0.0,0.000169,0.43164,0.06867,9.75114,0.006889,0.0,0.0,0.0,0.006889,0.0,0.0,0.0,0.006889
1421850640845103979,351394,1421850640845103979,fcu,-0.00951919694787,-0.0279605767206,-0.714707972431,0.698799044921,0.0,0.0,0.0,0.0,0.0,0.0,0.0,0.0,0.0,0.0696386371546,-0.173049395335,-0.071733032257,0.000169,0.0,0.0,0.0,0.000169,0.0,0.0,0.0,0.000169,0.43164,0.06867,9.75114,0.006889,0.0,0.0,0.0,0.006889,0.0,0.0,0.0,0.006889
1421850640847103834,351395,1421850640847103834,fcu,-0.00958160986147,-0.0280215144135,-0.714705511065,0.698798268412,0.0,0.0,0.0,0.0,0.0,0.0,0.0,0.0,0.0,0.00314159265359,-0.256301600655,-0.0764454212374,0.000169,0.0,0.0,0.0,0.000169,0.0,0.0,0.0,0.000169,0.37278,-0.06867,9.81,0.006889,0.0,0.0,0.0,0.006889,0.0,0.0,0.0,0.006889
1421850640849103928,351396,1421850640849103928,fcu,-0.00958304108073,-0.0281448213925,-0.714700590879,0.69879832552,0.0,0.0,0.0,0.0,0.0,0.0,0.0,0.0,0.0,0.0926769832809,-0.216769893098,-0.0824668071567,0.000169,0.0,0.0,0.0,0.000169,0.0,0.0,0.0,0.000169,0.37278,-0.06867,9.81,0.006889,0.0,0.0,0.0,0.006889,0.0,0.0,0.0,0.006889
1421850640851104021,351397,1421850640851104021,fcu,-0.00982879413449,-0.0282661208783,-0.714634627075,0.698857475457,0.0,0.0,0.0,0.0,0.0,0.0,0.0,0.0,0.0,-0.162577419823,0.0578576647036,0.106028752059,0.000169,0.0,0.0,0.0,0.000169,0.0,0.0,0.0,0.000169,0.37278,-0.06867,9.81,0.006889,0.0,0.0,0.0,0.006889,0.0,0.0,0.0,0.006889
1421850640853106022,351398,1421850640853106022,fcu,-0.00976638683359,-0.0282051785954,-0.714637110142,0.698858273469,0.0,0.0,0.0,0.0,0.0,0.0,0.0,0.0,0.0,-0.0761836218496,0.0568104671524,0.0570722665402,0.000169,0.0,0.0,0.0,0.000169,0.0,0.0,0.0,0.000169,0.43164,0.06867,9.93753,0.006889,0.0,0.0,0.0,0.006889,0.0,0.0,0.0,0.006889
1421850640855105877,351399,1421850640855105877,fcu,-0.00988978091673,-0.0282037571348,-0.714637091038,0.698856615072,0.0,0.0,0.0,0.0,0.0,0.0,0.0,0.0,0.0,-0.0840376034835,-0.0431968989869,-0.0426733002113,0.000169,0.0,0.0,0.0,0.000169,0.0,0.0,0.0,0.000169,0.43164,0.06867,9.93753,0.006889,0.0,0.0,0.0,0.006889,0.0,0.0,0.0,0.006889
1421850640857105970,351400,1421850640857105970,fcu,-0.00995465459487,-0.0282638308194,-0.7146955918,0.698793439996,0.0,0.0,0.0,0.0,0.0,0.0,0.0,0.0,0.0,0.0479092879672,-0.173572994111,-0.128281700022,0.000169,0.0,0.0,0.0,0.000169,0.0,0.0,0.0,0.000169,0.38259,0.0,9.72171,0.006889,0.0,0.0,0.0,0.006889,0.0,0.0,0.0,0.006889
1421850640859107971,351401,1421850640859107971,fcu,-0.0101443739582,-0.0284457548855,-0.714749087653,0.698728611412,0.0,0.0,0.0,0.0,0.0,0.0,0.0,0.0,0.0,-0.0342957198017,-0.28195794066,-0.0764454212374,0.000169,0.0,0.0,0.0,0.000169,0.0,0.0,0.0,0.000169,0.38259,0.0,9.72171,0.006889,0.0,0.0,0.0,0.006889,0.0,0.0,0.0,0.006889
1421850640861107826,351402,1421850640861107826,fcu,-0.0102681469906,-0.0286918148493,-0.714678076819,0.698789375587,0.0,0.0,0.0,0.0,0.0,0.0,0.0,0.0,0.0,0.00968657734857,-0.119904119612,0.109955742876,0.000169,0.0,0.0,0.0,0.000169,0.0,0.0,0.0,0.000169,0.38259,0.0,9.72171,0.006889,0.0,0.0,0.0,0.006889,0.0,0.0,0.0,0.006889
1421850640863107920,351403,1421850640863107920,fcu,-0.0103266293984,-0.0286303485899,-0.714619594411,0.698850841846,0.0,0.0,0.0,0.0,0.0,0.0,0.0,0.0,0.0,-0.0942477796077,0.102625360017,0.0788016157275,0.000169,0.0,0.0,0.0,0.000169,0.0,0.0,0.0,0.000169,0.42183,0.00981,9.98658,0.006889,0.0,0.0,0.0,0.006889,0.0,0.0,0.0,0.006889
1421850640865108013,351404,1421850640865108013,fcu,-0.0102628022808,-0.028446103529,-0.71462710577,0.698851625012,0.0,0.0,0.0,0.0,0.0,0.0,0.0,0.0,0.0,-0.0298451302091,-0.0484328867428,-0.0149225651046,0.000169,0.0,0.0,0.0,0.000169,0.0,0.0,0.0,0.000169,0.42183,0.00981,9.98658,0.006889,0.0,0.0,0.0,0.006889,0.0,0.0,0.0,0.006889
1421850640867110014,351405,1421850640867110014,fcu,-0.0103252089797,-0.0285070449514,-0.714624600686,0.698850784175,0.0,0.0,0.0,0.0,0.0,0.0,0.0,0.0,0.0,-0.0473856891916,-0.191898951257,-0.062570053684,0.000169,0.0,0.0,0.0,0.000169,0.0,0.0,0.0,0.000169,0.43164,0.10791,9.86886,0.006889,0.0,0.0,0.0,0.006889,0.0,0.0,0.0,0.006889
1421850640869109869,351406,1421850640869109869,fcu,-0.0103901085874,-0.0285670795576,-0.7146830736,0.698787572814,0.0,0.0,0.0,0.0,0.0,0.0,0.0,0.0,0.0,0.0141371669412,-0.232216056978,-0.0921533845053,0.000169,0.0,0.0,0.0,0.000169,0.0,0.0,0.0,0.000169,0.43164,0.10791,9.86886,0.006889,0.0,0.0,0.0,0.006889,0.0,0.0,0.0,0.006889
1421850640871109962,351407,1421850640871109962,fcu,-0.0108255587637,-0.0288703228783,-0.714670417835,0.698781443375,0.0,0.0,0.0,0.0,0.0,0.0,0.0,0.0,0.0,-0.0452912940893,-0.222791279017,0.00157079632679,0.000169,0.0,0.0,0.0,0.000169,0.0,0.0,0.0,0.000169,0.35316,0.0,9.80019,0.006889,0.0,0.0,0.0,0.006889,0.0,0.0,0.0,0.006889
1421850640873111963,351408,1421850640873111963,fcu,-0.0108230393115,-0.0288712674766,-0.714609434929,0.698843807474,0.0,0.0,0.0,0.0,0.0,0.0,0.0,0.0,0.0,0.0675442420522,0.0248709418409,0.115715329407,0.000169,0.0,0.0,0.0,0.000169,0.0,0.0,0.0,0.000169,0.35316,0.0,9.80019,0.006889,0.0,0.0,0.0,0.006889,0.0,0.0,0.0,0.006889
1421850640879112005,351411,1421850640879112005,fcu,-0.0108230393115,-0.0288712674766,-0.714609434929,0.698843807474,0.0,0.0,0.0,0.0,0.0,0.0,0.0,0.0,0.0,-0.0282743338823,-0.220696883915,-0.113882733693,0.000169,0.0,0.0,0.0,0.000169,0.0,0.0,0.0,0.000169,0.42183,0.04905,10.09449,0.006889,0.0,0.0,0.0,0.006889,0.0,0.0,0.0,0.006889
1421850640881114006,351412,1421850640881114006,fcu,-0.0110153277269,-0.029052164405,-0.714723748594,0.698716392747,0.0,0.0,0.0,0.0,0.0,0.0,0.0,0.0,0.0,-0.0882263936883,-0.0900589894029,-0.0159697626557,0.000169,0.0,0.0,0.0,0.000169,0.0,0.0,0.0,0.000169,0.34335,0.06867,9.73152,0.006889,0.0,0.0,0.0,0.006889,0.0,0.0,0.0,0.006889
1421850640885113955,351414,1421850640885113955,fcu,-0.0110102569999,-0.0290540864999,-0.714601788693,0.698841124931,0.0,0.0,0.0,0.0,0.0,0.0,0.0,0.0,0.0,0.114929931244,0.0942477796077,0.0753982236862,0.000169,0.0,0.0,0.0,0.000169,0.0,0.0,0.0,0.000169,0.38259,0.03924,9.96696,0.006889,0.0,0.0,0.0,0.006889,0.0,0.0,0.0,0.006889
1421850640887115955,351415,1421850640887115955,fcu,-0.010947851187,-0.0289931470461,-0.71460434288,0.698842024434,0.0,0.0,0.0,0.0,0.0,0.0,0.0,0.0,0.0,-0.0227765467385,0.0136135681656,0.00287979326579,0.000169,0.0,0.0,0.0,0.000169,0.0,0.0,0.0,0.000169,0.38259,0.03924,9.96696,0.006889,0.0,0.0,0.0,0.006889,0.0,0.0,0.0,0.006889
1421850640893115997,351418,1421850640893115997,fcu,-0.0111985941644,-0.0291126271583,-0.714660189783,0.698775972375,0.0,0.0,0.0,0.0,0.0,0.0,0.0,0.0,0.0,-0.0369137136797,-0.0850848010347,0.00497418836818,0.000169,0.0,0.0,0.0,0.000169,0.0,0.0,0.0,0.000169,0.30411,0.05886,9.64323,0.006889,0.0,0.0,0.0,0.006889,0.0,0.0,0.0,0.006889
1421850640895117998,351419,1421850640895117998,fcu,-0.0112545034304,-0.0290522259046,-0.71454075749,0.698899713985,0.0,0.0,0.0,0.0,0.0,0.0,0.0,0.0,0.0,0.0340339204139,0.061261056745,0.131161493287,0.000169,0.0,0.0,0.0,0.000169,0.0,0.0,0.0,0.000169,0.30411,0.05886,9.64323,0.006889,0.0,0.0,0.0,0.006889,0.0,0.0,0.0,0.006889
1421850640905119896,351424,1421850640905119896,fcu,-0.0116196037972,-0.029050022413,-0.71441870013,0.699018599116,0.0,0.0,0.0,0.0,0.0,0.0,0.0,0.0,0.0,-0.105766952671,-0.0683296402156,0.0903207887907,0.000169,0.0,0.0,0.0,0.000169,0.0,0.0,0.0,0.000169,0.31392,0.07848,9.74133,0.006889,0.0,0.0,0.0,0.006889,0.0,0.0,0.0,0.006889
1421850640907119989,351425,1421850640907119989,fcu,-0.0116221388456,-0.0290490083007,-0.71447969829,0.698956251661,0.0,0.0,0.0,0.0,0.0,0.0,0.0,0.0,0.0,-0.0154461638801,0.0136135681656,0.00759218224618,0.000169,0.0,0.0,0.0,0.000169,0.0,0.0,0.0,0.000169,0.32373,0.02943,9.80019,0.006889,0.0,0.0,0.0,0.006889,0.0,0.0,0.0,0.006889
1421850640925125837,351434,1421850640925125837,fcu,-0.0118703164807,-0.0291695084786,-0.714474549961,0.698952325141,0.0,0.0,0.0,0.0,0.0,0.0,0.0,0.0,0.0,-0.138491876146,0.0984365698125,0.0646644487864,0.000169,0.0,0.0,0.0,0.000169,0.0,0.0,0.0,0.000169,0.31392,-0.01962,9.79038,0.006889,0.0,0.0,0.0,0.006889,0.0,0.0,0.0,0.006889
1421850640927125931,351435,1421850640927125931,fcu,-0.0118053822446,-0.0291095888901,-0.714416117704,0.699015647572,0.0,0.0,0.0,0.0,0.0,0.0,0.0,0.0,0.0,-0.113097335529,0.0939859802199,0.0518362787842,0.000169,0.0,0.0,0.0,0.000169,0.0,0.0,0.0,0.000169,0.31392,-0.01962,9.79038,0.006889,0.0,0.0,0.0,0.006889,0.0,0.0,0.0,0.006889
1421850640933127880,351438,1421850640933127880,fcu,-0.0120547002208,-0.0291057588407,-0.714477069669,0.69894925132,0.0,0.0,0.0,0.0,0.0,0.0,0.0,0.0,0.0,0.128543499409,-0.14870205227,-0.0272271363311,0.000169,0.0,0.0,0.0,0.000169,0.0,0.0,0.0,0.000169,0.35316,0.01962,9.72171,0.006889,0.0,0.0,0.0,0.006889,0.0,0.0,0.0,0.006889
1421850640935127974,351439,1421850640935127974,fcu,-0.0119313115323,-0.029107158701,-0.71447709276,0.698951286599,0.0,0.0,0.0,0.0,0.0,0.0,0.0,0.0,0.0,-0.00549778714378,0.105505153283,0.0591666616426,0.000169,0.0,0.0,0.0,0.000169,0.0,0.0,0.0,0.000169,0.33354,-0.05886,9.81,0.006889,0.0,0.0,0.0,0.006889,0.0,0.0,0.0,0.006889
1421850640949131966,351446,1421850640949131966,fcu,-0.0118597158678,-0.0286783738506,-0.714372832308,0.699076787251,0.0,0.0,0.0,0.0,0.0,0.0,0.0,0.0,0.0,-0.0845612022591,0.212842902281,0.111526539202,0.000169,0.0,0.0,0.0,0.000169,0.0,0.0,0.0,0.000169,0.32373,-0.04905,9.74133,0.006889,0.0,0.0,0.0,0.006889,0.0,0.0,0.0,0.006889
1421850640951133966,351447,1421850640951133966,fcu,-0.0117297237168,-0.0283108622151,-0.714326832447,0.699140962259,0.0,0.0,0.0,0.0,0.0,0.0,0.0,0.0,0.0,-0.147393055331,0.180379778194,-0.0120427718388,0.000169,0.0,0.0,0.0,0.000169,0.0,0.0,0.0,0.000169,0.33354,0.04905,9.7119,0.006889,0.0,0.0,0.0,0.006889,0.0,0.0,0.0,0.006889
1421850640955133915,351449,1421850640955133915,fcu,-0.0119789728285,-0.0283070818381,-0.714387796296,0.699074595327,0.0,0.0,0.0,0.0,0.0,0.0,0.0,0.0,0.0,-0.00261799387799,-0.204988920647,-0.128281700022,0.000169,0.0,0.0,0.0,0.000169,0.0,0.0,0.0,0.000169,0.33354,0.04905,9.7119,0.006889,0.0,0.0,0.0,0.006889,0.0,0.0,0.0,0.006889
1421850640957135916,351450,1421850640957135916,fcu,-0.0119803502207,-0.0284303872712,-0.714382822282,0.699074650889,0.0,0.0,0.0,0.0,0.0,0.0,0.0,0.0,0.0,0.156556033904,-0.0751364242984,-0.0795870138909,0.000169,0.0,0.0,0.0,0.000169,0.0,0.0,0.0,0.000169,0.2943,-0.05886,9.81981,0.006889,0.0,0.0,0.0,0.006889,0.0,0.0,0.0,0.006889
1421850640969137907,351456,1421850640969137907,fcu,-0.012284290712,-0.0282430551108,-0.714329209608,0.699131751776,0.0,0.0,0.0,0.0,0.0,0.0,0.0,0.0,0.0,0.0314159265359,-0.000261799387799,-0.0387463093943,0.000169,0.0,0.0,0.0,0.000169,0.0,0.0,0.0,0.000169,0.33354,-0.08829,9.84924,0.006889,0.0,0.0,0.0,0.006889,0.0,0.0,0.0,0.006889
1421850640972139835,351457,1421850640972139835,fcu,-0.0120323369489,-0.028000225777,-0.714278103565,0.699198112834,0.0,0.0,0.0,0.0,0.0,0.0,0.0,0.0,0.0,0.0154461638801,0.314159265359,0.063879050623,0.000169,0.0,0.0,0.0,0.000169,0.0,0.0,0.0,0.000169,0.33354,-0.08829,9.84924,0.006889,0.0,0.0,0.0,0.006889,0.0,0.0,0.0,0.006889
1421850640973140001,351458,1421850640973140001,fcu,-0.0119699644574,-0.0279392499346,-0.714280566825,0.699199106207,0.0,0.0,0.0,0.0,0.0,0.0,0.0,0.0,0.0,-0.0246091424531,0.121998514714,0.0777544181763,0.000169,0.0,0.0,0.0,0.000169,0.0,0.0,0.0,0.000169,0.3924,0.0,9.82962,0.006889,0.0,0.0,0.0,0.006889,0.0,0.0,0.0,0.006889
1421850640975139856,351459,1421850640975139856,fcu,-0.0122113183888,-0.0274432948146,-0.714299944214,0.699194778991,0.0,0.0,0.0,0.0,0.0,0.0,0.0,0.0,0.0,-0.296618706376,-0.0146607657168,-0.0523598775598,0.000169,0.0,0.0,0.0,0.000169,0.0,0.0,0.0,0.000169,0.3924,0.0,9.82962,0.006889,0.0,0.0,0.0,0.006889,0.0,0.0,0.0,0.006889
1421850640983141899,351463,1421850640983141899,fcu,-0.0121540690535,-0.0276278798371,-0.714353726114,0.699133558663,0.0,0.0,0.0,0.0,0.0,0.0,0.0,0.0,0.0,-0.0780162175641,0.508414411106,0.0751364242984,0.000169,0.0,0.0,0.0,0.000169,0.0,0.0,0.0,0.000169,0.40221,-0.07848,9.9081,0.006889,0.0,0.0,0.0,0.006889,0.0,0.0,0.0,0.006889
1421850640985143900,351464,1421850640985143900,fcu,-0.0119631848183,-0.0273226958891,-0.714304791299,0.699198839834,0.0,0.0,0.0,0.0,0.0,0.0,0.0,0.0,0.0,-0.0222529479629,0.222791279017,0.11414453308,0.000169,0.0,0.0,0.0,0.000169,0.0,0.0,0.0,0.000169,0.40221,-0.07848,9.9081,0.006889,0.0,0.0,0.0,0.006889,0.0,0.0,0.0,0.006889
1421850640987143993,351465,1421850640987143993,fcu,-0.0121425209445,-0.0270134355556,-0.714255648881,0.699257964935,0.0,0.0,0.0,0.0,0.0,0.0,0.0,0.0,0.0,-0.342957198017,0.0337721210261,-0.0170169602069,0.000169,0.0,0.0,0.0,0.000169,0.0,0.0,0.0,0.000169,0.40221,-0.07848,9.9081,0.006889,0.0,0.0,0.0,0.006889,0.0,0.0,0.0,0.006889
1421850640989143848,351466,1421850640989143848,fcu,-0.0123282762675,-0.0270730739888,-0.71425324345,0.699254865189,0.0,0.0,0.0,0.0,0.0,0.0,0.0,0.0,0.0,-0.177499984928,-0.332747021893,-0.048171087355,0.000169,0.0,0.0,0.0,0.000169,0.0,0.0,0.0,0.000169,0.27468,0.06867,9.62361,0.006889,0.0,0.0,0.0,0.006889,0.0,0.0,0.0,0.006889
1421850640991143942,351467,1421850640991143942,fcu,-0.0126448867857,-0.02737578659,-0.714363279278,0.699125009112,0.0,0.0,0.0,0.0,0.0,0.0,0.0,0.0,0.0,0.23195425759,0.00759218224618,-0.00575958653158,0.000169,0.0,0.0,0.0,0.000169,0.0,0.0,0.0,0.000169,0.27468,0.06867,9.62361,0.006889,0.0,0.0,0.0,0.006889,0.0,0.0,0.0,0.006889
1421850640993145943,351468,1421850640993145943,fcu,-0.0124580945619,-0.0274405812595,-0.714299898033,0.699190579205,0.0,0.0,0.0,0.0,0.0,0.0,0.0,0.0,0.0,0.332223423117,0.0790634151153,0.0526216769476,0.000169,0.0,0.0,0.0,0.000169,0.0,0.0,0.0,0.000169,0.36297,-0.12753,9.95715,0.006889,0.0,0.0,0.0,0.006889,0.0,0.0,0.0,0.006889
1421850640997145891,351470,1421850640997145891,fcu,-0.0118943975094,-0.0268928120705,-0.714260420049,0.699262005488,0.0,0.0,0.0,0.0,0.0,0.0,0.0,0.0,0.0,-0.011780972451,0.247662220858,0.103934356956,0.000169,0.0,0.0,0.0,0.000169,0.0,0.0,0.0,0.000169,0.36297,-0.12753,9.95715,0.006889,0.0,0.0,0.0,0.006889,0.0,0.0,0.0,0.006889
1421850640999147892,351471,1421850640999147892,fcu,-0.0121398305014,-0.0267668036832,-0.714265080414,0.699257862049,0.0,0.0,0.0,0.0,0.0,0.0,0.0,0.0,0.0,-0.241902634326,-0.195564142686,-0.0858701991981,0.000169,0.0,0.0,0.0,0.000169,0.0,0.0,0.0,0.000169,0.32373,0.06867,9.62361,0.006889,0.0,0.0,0.0,0.006889,0.0,0.0,0.0,0.006889
1421850641003147840,351473,1421850641003147840,fcu,-0.0125760582545,-0.0269459694998,-0.714318952859,0.699188237225,0.0,0.0,0.0,0.0,0.0,0.0,0.0,0.0,0.0,-0.0761836218496,0.0602138591938,0.0136135681656,0.000169,0.0,0.0,0.0,0.000169,0.0,0.0,0.0,0.000169,0.2943,-0.00981,9.80019,0.006889,0.0,0.0,0.0,0.006889,0.0,0.0,0.0,0.006889
1421850641005147934,351474,1421850641005147934,fcu,-0.0122706238263,-0.0270099483252,-0.714377658505,0.699131214802,0.0,0.0,0.0,0.0,0.0,0.0,0.0,0.0,0.0,0.131423292675,0.214937297383,-0.0769690200129,0.000169,0.0,0.0,0.0,0.000169,0.0,0.0,0.0,0.000169,0.2943,-0.00981,9.80019,0.006889,0.0,0.0,0.0,0.006889,0.0,0.0,0.0,0.006889
1421850641007149935,351475,1421850641007149935,fcu,-0.0121458687538,-0.0268880005865,-0.714382408059,0.699133240773,0.0,0.0,0.0,0.0,0.0,0.0,0.0,0.0,0.0,0.00445058959259,0.204727121259,-0.011780972451,0.000169,0.0,0.0,0.0,0.000169,0.0,0.0,0.0,0.000169,0.40221,-0.0981,9.91791,0.006889,0.0,0.0,0.0,0.006889,0.0,0.0,0.0,0.006889
1421850641009150028,351476,1421850641009150028,fcu,-0.0122045385655,-0.0268267240075,-0.714323738247,0.699194517351,0.0,0.0,0.0,0.0,0.0,0.0,0.0,0.0,0.0,-0.11780972451,-0.0397935069455,0.059952059806,0.000169,0.0,0.0,0.0,0.000169,0.0,0.0,0.0,0.000169,0.40221,-0.0981,9.91791,0.006889,0.0,0.0,0.0,0.006889,0.0,0.0,0.0,0.006889
1421850641013151884,351478,1421850641013151884,fcu,-0.0125109745604,-0.0266383567995,-0.71433071366,0.699189176822,0.0,0.0,0.0,0.0,0.0,0.0,0.0,0.0,0.0,-0.142157067575,0.0659734457254,-0.0159697626557,0.000169,0.0,0.0,0.0,0.000169,0.0,0.0,0.0,0.000169,0.31392,0.0981,9.6138,0.006889,0.0,0.0,0.0,0.006889,0.0,0.0,0.0,0.006889
1421850641015151978,351479,1421850641015151978,fcu,-0.0124486027458,-0.0265773763551,-0.714333059021,0.699190214567,0.0,0.0,0.0,0.0,0.0,0.0,0.0,0.0,0.0,0.23666664657,0.0578576647036,0.0198967534727,0.000169,0.0,0.0,0.0,0.000169,0.0,0.0,0.0,0.000169,0.33354,-0.00981,9.77076,0.006889,0.0,0.0,0.0,0.006889,0.0,0.0,0.0,0.006889
1421850641023154020,351483,1421850641023154020,fcu,-0.0123785357335,-0.0260241964993,-0.714292812878,0.699253380771,0.0,0.0,0.0,0.0,0.0,0.0,0.0,0.0,0.0,-0.103672557568,-0.0492182849062,-0.0248709418409,0.000169,0.0,0.0,0.0,0.000169,0.0,0.0,0.0,0.000169,0.27468,0.10791,9.45684,0.006889,0.0,0.0,0.0,0.006889,0.0,0.0,0.0,0.006889
1421850641025153875,351484,1421850641025153875,fcu,-0.0124395570553,-0.0259618625933,-0.714295081198,0.699252297878,0.0,0.0,0.0,0.0,0.0,0.0,0.0,0.0,0.0,0.0515744793964,-0.0327249234749,-0.00916297857297,0.000169,0.0,0.0,0.0,0.000169,0.0,0.0,0.0,0.000169,0.27468,0.10791,9.45684,0.006889,0.0,0.0,0.0,0.006889,0.0,0.0,0.0,0.006889
1421850641027155876,351485,1421850641027155876,fcu,-0.0123785357335,-0.0260241964993,-0.714292812878,0.699253380771,0.0,0.0,0.0,0.0,0.0,0.0,0.0,0.0,0.0,0.247924020246,-0.0696386371546,-0.0327249234749,0.000169,0.0,0.0,0.0,0.000169,0.0,0.0,0.0,0.000169,0.27468,0.10791,9.45684,0.006889,0.0,0.0,0.0,0.006889,0.0,0.0,0.0,0.006889
1421850641029155970,351486,1421850641029155970,fcu,-0.0121340301872,-0.0260258297283,-0.714353877471,0.699195222552,0.0,0.0,0.0,0.0,0.0,0.0,0.0,0.0,0.0,0.0670206432766,0.146084058392,-0.0884881930761,0.000169,0.0,0.0,0.0,0.000169,0.0,0.0,0.0,0.000169,0.3924,-0.13734,9.97677,0.006889,0.0,0.0,0.0,0.006889,0.0,0.0,0.0,0.006889
1421850641035157919,351489,1421850641035157919,fcu,-0.0121873994264,-0.0254712602777,-0.714313172189,0.699256300817,0.0,0.0,0.0,0.0,0.0,0.0,0.0,0.0,0.0,-0.150272848597,0.0570722665402,-0.0549778714378,0.000169,0.0,0.0,0.0,0.000169,0.0,0.0,0.0,0.000169,0.36297,0.02943,9.67266,0.006889,0.0,0.0,0.0,0.006889,0.0,0.0,0.0,0.006889
1421850641037158012,351490,1421850641037158012,fcu,-0.0122484210037,-0.0254089245971,-0.714315392256,0.699255234604,0.0,0.0,0.0,0.0,0.0,0.0,0.0,0.0,0.0,-0.0615228561328,-0.00235619449019,-0.0801106126665,0.000169,0.0,0.0,0.0,0.000169,0.0,0.0,0.0,0.000169,0.33354,0.0,9.78057,0.006889,0.0,0.0,0.0,0.006889,0.0,0.0,0.0,0.006889
1421850641043159962,351493,1421850641043159962,fcu,-0.0120029888258,-0.0255349417822,-0.714310969119,0.69925941853,0.0,0.0,0.0,0.0,0.0,0.0,0.0,0.0,0.0,-0.000523598775598,0.103410758181,0.0426733002113,0.000169,0.0,0.0,0.0,0.000169,0.0,0.0,0.0,0.000169,0.3924,-0.06867,9.84924,0.006889,0.0,0.0,0.0,0.006889,0.0,0.0,0.0,0.006889
1421850641046159983,351494,1421850641046159983,fcu,-0.0121201457784,-0.0251646757521,-0.714263262423,0.699319550073,0.0,0.0,0.0,0.0,0.0,0.0,0.0,0.0,0.0,-0.110217542263,0.111264739815,-0.0350811179651,0.000169,0.0,0.0,0.0,0.000169,0.0,0.0,0.0,0.000169,0.3924,-0.06867,9.84924,0.006889,0.0,0.0,0.0,0.006889,0.0,0.0,0.0,0.006889
1421850641051162004,351497,1421850641051162004,fcu,-0.011999792736,-0.0250405894317,-0.714389732115,0.699196885365,0.0,0.0,0.0,0.0,0.0,0.0,0.0,0.0,0.0,0.120951317163,0.0109955742876,-0.0615228561328,0.000169,0.0,0.0,0.0,0.000169,0.0,0.0,0.0,0.000169,0.34335,-0.08829,9.89829,0.006889,0.0,0.0,0.0,0.006889,0.0,0.0,0.0,0.006889
1421850641053161860,351498,1421850641053161860,fcu,-0.011999792736,-0.0250405894317,-0.714389732115,0.699196885365,0.0,0.0,0.0,0.0,0.0,0.0,0.0,0.0,0.0,0.0552396708256,0.0201585528605,0.0172787595947,0.000169,0.0,0.0,0.0,0.000169,0.0,0.0,0.0,0.000169,0.34335,-0.08829,9.89829,0.006889,0.0,0.0,0.0,0.006889,0.0,0.0,0.0,0.006889
1421850641055163860,351499,1421850641055163860,fcu,-0.0121820180704,-0.0249779534647,-0.714330872976,0.699256107724,0.0,0.0,0.0,0.0,0.0,0.0,0.0,0.0,0.0,-0.196873139625,-0.00287979326579,0.0832522053201,0.000169,0.0,0.0,0.0,0.000169,0.0,0.0,0.0,0.000169,0.34335,0.02943,9.78057,0.006889,0.0,0.0,0.0,0.006889,0.0,0.0,0.0,0.006889
1421850641057163954,351500,1421850641057163954,fcu,-0.0121820180704,-0.0249779534647,-0.714330872976,0.699256107724,0.0,0.0,0.0,0.0,0.0,0.0,0.0,0.0,0.0,-0.190066355542,-0.00287979326579,0.05471607205,0.000169,0.0,0.0,0.0,0.000169,0.0,0.0,0.0,0.000169,0.34335,0.02943,9.78057,0.006889,0.0,0.0,0.0,0.006889,0.0,0.0,0.0,0.006889
1421850641059164047,351501,1421850641059164047,fcu,-0.0121806727104,-0.02485462484,-0.714335244361,0.699256060038,0.0,0.0,0.0,0.0,0.0,0.0,0.0,0.0,0.0,-0.0848230016469,0.104457955732,-0.0306305283725,0.000169,0.0,0.0,0.0,0.000169,0.0,0.0,0.0,0.000169,0.34335,0.02943,9.78057,0.006889,0.0,0.0,0.0,0.006889,0.0,0.0,0.0,0.006889
1421850641061163902,351502,1421850641061163902,fcu,-0.0121814855084,-0.0247302325132,-0.7144006131,0.699193672034,0.0,0.0,0.0,0.0,0.0,0.0,0.0,0.0,0.0,0.0248709418409,0.010471975512,-0.0835140047079,0.000169,0.0,0.0,0.0,0.000169,0.0,0.0,0.0,0.000169,0.35316,-0.00981,9.87867,0.006889,0.0,0.0,0.0,0.006889,0.0,0.0,0.0,0.006889
1421850641063165903,351503,1421850641063165903,fcu,-0.0121212659204,-0.0246681883003,-0.71446380488,0.699132338628,0.0,0.0,0.0,0.0,0.0,0.0,0.0,0.0,0.0,0.0900589894029,-0.00157079632679,-0.0806342114421,0.000169,0.0,0.0,0.0,0.000169,0.0,0.0,0.0,0.000169,0.35316,-0.00981,9.87867,0.006889,0.0,0.0,0.0,0.006889,0.0,0.0,0.0,0.006889
1421850641065165997,351504,1421850641065165997,fcu,-0.0120602550683,-0.0247305369352,-0.714461649454,0.699133393745,0.0,0.0,0.0,0.0,0.0,0.0,0.0,0.0,0.0,-0.0361283155163,0.104457955732,0.108384946549,0.000169,0.0,0.0,0.0,0.000169,0.0,0.0,0.0,0.000169,0.35316,-0.00981,9.87867,0.006889,0.0,0.0,0.0,0.006889,0.0,0.0,0.0,0.006889
1421850641067165852,351505,1421850641067165852,fcu,-0.0119957243562,-0.0246706027719,-0.71440281397,0.699196741516,0.0,0.0,0.0,0.0,0.0,0.0,0.0,0.0,0.0,-0.0947713783833,0.167551608191,0.112573736754,0.000169,0.0,0.0,0.0,0.000169,0.0,0.0,0.0,0.000169,0.37278,0.0,9.84924,0.006889,0.0,0.0,0.0,0.006889,0.0,0.0,0.0,0.006889
1421850641069167852,351506,1421850641069167852,fcu,-0.0119908806248,-0.02442498771,-0.714350408444,0.699258988297,0.0,0.0,0.0,0.0,0.0,0.0,0.0,0.0,0.0,-0.0950331777711,0.0782780169519,0.0272271363311,0.000169,0.0,0.0,0.0,0.000169,0.0,0.0,0.0,0.000169,0.37278,0.0,9.84924,0.006889,0.0,0.0,0.0,0.006889,0.0,0.0,0.0,0.006889
1421850641072167873,351507,1421850641072167873,fcu,-0.0119937764842,-0.0242995627512,-0.714476715793,0.699134252605,0.0,0.0,0.0,0.0,0.0,0.0,0.0,0.0,0.0,-0.0445058959259,0.0261799387799,-0.105243353895,0.000169,0.0,0.0,0.0,0.000169,0.0,0.0,0.0,0.000169,0.34335,0.07848,9.77076,0.006889,0.0,0.0,0.0,0.006889,0.0,0.0,0.0,0.006889
1421850641073168039,351508,1421850641073168039,fcu,-0.0120561543382,-0.024360544959,-0.714474569859,0.699133250545,0.0,0.0,0.0,0.0,0.0,0.0,0.0,0.0,0.0,-0.0549778714378,-0.0397935069455,-0.0774926187885,0.000169,0.0,0.0,0.0,0.000169,0.0,0.0,0.0,0.000169,0.34335,0.07848,9.77076,0.006889,0.0,0.0,0.0,0.006889,0.0,0.0,0.0,0.006889
1421850641077169895,351510,1421850641077169895,fcu,-0.0119362690791,-0.0244842023812,-0.714531315607,0.699072992134,0.0,0.0,0.0,0.0,0.0,0.0,0.0,0.0,0.0,0.163362817987,-0.0630936524596,-0.0272271363311,0.000169,0.0,0.0,0.0,0.000169,0.0,0.0,0.0,0.000169,0.33354,-0.07848,9.92772,0.006889,0.0,0.0,0.0,0.006889,0.0,0.0,0.0,0.006889
1421850641079169989,351511,1421850641079169989,fcu,-0.0119292832783,-0.024239621477,-0.714417842506,0.699197596721,0.0,0.0,0.0,0.0,0.0,0.0,0.0,0.0,0.0,-0.159697626557,0.205512519422,0.10707594961,0.000169,0.0,0.0,0.0,0.000169,0.0,0.0,0.0,0.000169,0.33354,-0.07848,9.92772,0.006889,0.0,0.0,0.0,0.006889,0.0,0.0,0.0,0.006889
1421850641083171844,351513,1421850641083171844,fcu,-0.0119265709262,-0.0239929547047,-0.714426305439,0.699197503663,0.0,0.0,0.0,0.0,0.0,0.0,0.0,0.0,0.0,-0.0395317075577,0.0337721210261,-0.0958185759345,0.000169,0.0,0.0,0.0,0.000169,0.0,0.0,0.0,0.000169,0.36297,0.05886,9.91791,0.006889,0.0,0.0,0.0,0.006889,0.0,0.0,0.0,0.006889
1421850641085171938,351514,1421850641085171938,fcu,-0.0119896756675,-0.0239295629515,-0.71448941018,0.699134111909,0.0,0.0,0.0,0.0,0.0,0.0,0.0,0.0,0.0,-0.0699004365424,-0.0667588438888,-0.0706858347058,0.000169,0.0,0.0,0.0,0.000169,0.0,0.0,0.0,0.000169,0.31392,-0.06867,9.91791,0.006889,0.0,0.0,0.0,0.006889,0.0,0.0,0.0,0.006889
1421850641101176023,351522,1421850641101176023,fcu,-0.0115475804503,-0.0233813531723,-0.714386132423,0.699265628722,0.0,0.0,0.0,0.0,0.0,0.0,0.0,0.0,0.0,-0.0319395253115,0.333794219444,0.0869173967493,0.000169,0.0,0.0,0.0,0.000169,0.0,0.0,0.0,0.000169,0.31392,-0.06867,9.9081,0.006889,0.0,0.0,0.0,0.006889,0.0,0.0,0.0,0.006889
1421850641103175879,351523,1421850641103175879,fcu,-0.0114818426737,-0.0231980206517,-0.714331247157,0.699328884332,0.0,0.0,0.0,0.0,0.0,0.0,0.0,0.0,0.0,-0.119380520836,0.282219740047,0.0356047167407,0.000169,0.0,0.0,0.0,0.000169,0.0,0.0,0.0,0.000169,0.41202,0.04905,10.02582,0.006889,0.0,0.0,0.0,0.006889,0.0,0.0,0.0,0.006889
1421850641109177828,351526,1421850641109177828,fcu,-0.0117346953609,-0.0231922787835,-0.714514262627,0.699137885994,0.0,0.0,0.0,0.0,0.0,0.0,0.0,0.0,0.0,-0.0905825881785,-0.153938040026,-0.0672824426644,0.000169,0.0,0.0,0.0,0.000169,0.0,0.0,0.0,0.000169,0.31392,0.01962,9.79038,0.006889,0.0,0.0,0.0,0.006889,0.0,0.0,0.0,0.006889
1421850641111179829,351527,1421850641111179829,fcu,-0.0116702983964,-0.0231323116399,-0.714455291918,0.699201212916,0.0,0.0,0.0,0.0,0.0,0.0,0.0,0.0,0.0,0.10471975512,0.233525053917,0.0575958653158,0.000169,0.0,0.0,0.0,0.000169,0.0,0.0,0.0,0.000169,0.31392,0.01962,9.79038,0.006889,0.0,0.0,0.0,0.006889,0.0,0.0,0.0,0.006889
1421850641115180016,351529,1421850641115180016,fcu,-0.0113557194809,-0.0225806702418,-0.714473394638,0.699205927693,0.0,0.0,0.0,0.0,0.0,0.0,0.0,0.0,0.0,-0.146084058392,0.0727802298082,-0.0738274273594,0.000169,0.0,0.0,0.0,0.000169,0.0,0.0,0.0,0.000169,0.41202,0.0,10.15335,0.006889,0.0,0.0,0.0,0.006889,0.0,0.0,0.0,0.006889
1421850641117179871,351530,1421850641117179871,fcu,-0.0113557194809,-0.0225806702418,-0.714473394638,0.699205927693,0.0,0.0,0.0,0.0,0.0,0.0,0.0,0.0,0.0,-0.0856083998103,-0.0421497014357,-0.0981747704247,0.000169,0.0,0.0,0.0,0.000169,0.0,0.0,0.0,0.000169,0.33354,0.07848,9.88848,0.006889,0.0,0.0,0.0,0.006889,0.0,0.0,0.0,0.006889
1421850641121181965,351532,1421850641121181965,fcu,-0.0113524033879,-0.0224583183413,-0.714416326315,0.699268231489,0.0,0.0,0.0,0.0,0.0,0.0,0.0,0.0,0.0,0.107337748998,0.168337006355,0.151320046148,0.000169,0.0,0.0,0.0,0.000169,0.0,0.0,0.0,0.000169,0.31392,0.0,9.9081,0.006889,0.0,0.0,0.0,0.006889,0.0,0.0,0.0,0.006889
1421850641123181820,351533,1421850641123181820,fcu,-0.0112900351616,-0.022397319709,-0.714418304598,0.69926917652,0.0,0.0,0.0,0.0,0.0,0.0,0.0,0.0,0.0,0.0803724120543,0.193731546971,0.0473856891916,0.000169,0.0,0.0,0.0,0.000169,0.0,0.0,0.0,0.000169,0.31392,0.0,9.9081,0.006889,0.0,0.0,0.0,0.006889,0.0,0.0,0.0,0.006889
1421850641125183821,351534,1421850641125183821,fcu,-0.0111029299686,-0.0222143227905,-0.714424206803,0.699271979664,0.0,0.0,0.0,0.0,0.0,0.0,0.0,0.0,0.0,-0.0227765467385,0.145298660229,-0.00994837673637,0.000169,0.0,0.0,0.0,0.000169,0.0,0.0,0.0,0.000169,0.35316,0.01962,10.11411,0.006889,0.0,0.0,0.0,0.006889,0.0,0.0,0.0,0.006889
1421850641127183914,351535,1421850641127183914,fcu,-0.0111639529183,-0.0221519774327,-0.714426142648,0.699271008088,0.0,0.0,0.0,0.0,0.0,0.0,0.0,0.0,0.0,-0.100269165527,0.0458148928649,-0.0746128255228,0.000169,0.0,0.0,0.0,0.000169,0.0,0.0,0.0,0.000169,0.35316,0.01962,10.11411,0.006889,0.0,0.0,0.0,0.006889,0.0,0.0,0.0,0.006889
1421850641133185863,351538,1421850641133185863,fcu,-0.0111626073778,-0.0220286322538,-0.714430018927,0.699270965802,0.0,0.0,0.0,0.0,0.0,0.0,0.0,0.0,0.0,0.0308923277603,0.202632726157,0.134041286553,0.000169,0.0,0.0,0.0,0.000169,0.0,0.0,0.0,0.000169,0.30411,0.02943,9.85905,0.006889,0.0,0.0,0.0,0.006889,0.0,0.0,0.0,0.006889
1421850641135185957,351539,1421850641135185957,fcu,-0.0109144784667,-0.021907978496,-0.714433914793,0.699274692829,0.0,0.0,0.0,0.0,0.0,0.0,0.0,0.0,0.0,0.0136135681656,0.145822259004,-0.0175405589825,0.000169,0.0,0.0,0.0,0.000169,0.0,0.0,0.0,0.000169,0.30411,0.02943,9.85905,0.006889,0.0,0.0,0.0,0.006889,0.0,0.0,0.0,0.006889
1421850641139188051,351541,1421850641139188051,fcu,-0.010911787349,-0.02166128478,-0.71444155971,0.699274609433,0.0,0.0,0.0,0.0,0.0,0.0,0.0,0.0,0.0,-0.0774926187885,0.00445058959259,-0.0701622359302,0.000169,0.0,0.0,0.0,0.000169,0.0,0.0,0.0,0.000169,0.3924,0.00981,10.06506,0.006889,0.0,0.0,0.0,0.006889,0.0,0.0,0.0,0.006889
1421850641141187906,351542,1421850641141187906,fcu,-0.0109136776111,-0.0216603324644,-0.714502580211,0.699212259983,0.0,0.0,0.0,0.0,0.0,0.0,0.0,0.0,0.0,-0.0649262481742,0.000785398163397,-0.0785398163397,0.000169,0.0,0.0,0.0,0.000169,0.0,0.0,0.0,0.000169,0.28449,0.08829,9.70209,0.006889,0.0,0.0,0.0,0.006889,0.0,0.0,0.0,0.006889
1421850641147189856,351545,1421850641147189856,fcu,-0.0105999423817,-0.0213562790464,-0.714451044833,0.699279096715,0.0,0.0,0.0,0.0,0.0,0.0,0.0,0.0,0.0,0.118333323285,0.0311541271481,-0.0539306738866,0.000169,0.0,0.0,0.0,0.000169,0.0,0.0,0.0,0.000169,0.36297,-0.00981,10.07487,0.006889,0.0,0.0,0.0,0.006889,0.0,0.0,0.0,0.006889
1421850641149189949,351546,1421850641149189949,fcu,-0.0105999423817,-0.0213562790464,-0.714451044833,0.699279096715,0.0,0.0,0.0,0.0,0.0,0.0,0.0,0.0,0.0,-0.0395317075577,-0.0206821516361,-0.0575958653158,0.000169,0.0,0.0,0.0,0.000169,0.0,0.0,0.0,0.000169,0.36297,-0.00981,10.07487,0.006889,0.0,0.0,0.0,0.006889,0.0,0.0,0.0,0.006889
1421850641161193848,351552,1421850641161193848,fcu,-0.0107821474467,-0.0209215930439,-0.714525018628,0.699213865707,0.0,0.0,0.0,0.0,0.0,0.0,0.0,0.0,0.0,-0.071733032257,0.00759218224618,-0.0353429173529,0.000169,0.0,0.0,0.0,0.000169,0.0,0.0,0.0,0.000169,0.33354,0.0,10.0062,0.006889,0.0,0.0,0.0,0.006889,0.0,0.0,0.0,0.006889
1421850641163193941,351553,1421850641163193941,fcu,-0.0107807910699,-0.0207982414054,-0.714528679619,0.69921382545,0.0,0.0,0.0,0.0,0.0,0.0,0.0,0.0,0.0,-0.0408407044967,0.0939859802199,0.0473856891916,0.000169,0.0,0.0,0.0,0.000169,0.0,0.0,0.0,0.000169,0.33354,0.0,10.0062,0.006889,0.0,0.0,0.0,0.006889,0.0,0.0,0.0,0.006889
1421850641167196035,351555,1421850641167196035,fcu,-0.0106528923019,-0.0205538227641,-0.714474936354,0.699277928708,0.0,0.0,0.0,0.0,0.0,0.0,0.0,0.0,0.0,0.0816814089933,0.0840376034835,0.00418879020479,0.000169,0.0,0.0,0.0,0.000169,0.0,0.0,0.0,0.000169,0.37278,0.01962,9.91791,0.006889,0.0,0.0,0.0,0.006889,0.0,0.0,0.0,0.006889
1421850641169195890,351556,1421850641169195890,fcu,-0.0107152614021,-0.0206148263277,-0.714473120121,0.699277035755,0.0,0.0,0.0,0.0,0.0,0.0,0.0,0.0,0.0,0.136135681656,-0.118071523897,0.0185877565337,0.000169,0.0,0.0,0.0,0.000169,0.0,0.0,0.0,0.000169,0.37278,0.01962,9.91791,0.006889,0.0,0.0,0.0,0.006889,0.0,0.0,0.0,0.006889
1421850641171195984,351557,1421850641171195984,fcu,-0.0107762847945,-0.0205524767075,-0.714474916383,0.699276098009,0.0,0.0,0.0,0.0,0.0,0.0,0.0,0.0,0.0,-0.0136135681656,0.0272271363311,-0.0206821516361,0.000169,0.0,0.0,0.0,0.000169,0.0,0.0,0.0,0.000169,0.32373,-0.03924,10.04544,0.006889,0.0,0.0,0.0,0.006889,0.0,0.0,0.0,0.006889
1421850641173195839,351558,1421850641173195839,fcu,-0.0107762847945,-0.0205524767075,-0.714474916383,0.699276098009,0.0,0.0,0.0,0.0,0.0,0.0,0.0,0.0,0.0,-0.0348193185773,0.0623082542962,0.0636172512352,0.000169,0.0,0.0,0.0,0.000169,0.0,0.0,0.0,0.000169,0.32373,-0.03924,10.04544,0.006889,0.0,0.0,0.0,0.006889,0.0,0.0,0.0,0.006889
1421850641175197840,351559,1421850641175197840,fcu,-0.0107704865861,-0.0201833538438,-0.714424614955,0.699338328988,0.0,0.0,0.0,0.0,0.0,0.0,0.0,0.0,0.0,-0.0269653369433,0.110479341651,0.05471607205,0.000169,0.0,0.0,0.0,0.000169,0.0,0.0,0.0,0.000169,0.31392,0.04905,9.89829,0.006889,0.0,0.0,0.0,0.006889,0.0,0.0,0.0,0.006889
1421850641177197933,351560,1421850641177197933,fcu,-0.0107081228778,-0.020122343745,-0.714426393492,0.699339227892,0.0,0.0,0.0,0.0,0.0,0.0,0.0,0.0,0.0,0.00890117918517,0.0253945406165,0.0109955742876,0.000169,0.0,0.0,0.0,0.000169,0.0,0.0,0.0,0.000169,0.31392,0.04905,9.89829,0.006889,0.0,0.0,0.0,0.006889,0.0,0.0,0.0,0.006889
1421850641179198027,351561,1421850641179198027,fcu,-0.0107691516975,-0.0200599982043,-0.714428146778,0.699338290769,0.0,0.0,0.0,0.0,0.0,0.0,0.0,0.0,0.0,-0.0659734457254,0.0882263936883,-0.0382227106187,0.000169,0.0,0.0,0.0,0.000169,0.0,0.0,0.0,0.000169,0.33354,0.0,10.02582,0.006889,0.0,0.0,0.0,0.006889,0.0,0.0,0.0,0.006889
1421850641181200027,351562,1421850641181200027,fcu,-0.0108332711751,-0.0201200631535,-0.714487399544,0.699275038298,0.0,0.0,0.0,0.0,0.0,0.0,0.0,0.0,0.0,-0.0570722665402,-0.0602138591938,-0.0992219679759,0.000169,0.0,0.0,0.0,0.000169,0.0,0.0,0.0,0.000169,0.33354,0.0,10.02582,0.006889,0.0,0.0,0.0,0.006889,0.0,0.0,0.0,0.006889
1421850641187199831,351565,1421850641187199831,fcu,-0.0106413600985,-0.0198155490834,-0.714374133992,0.699402389296,0.0,0.0,0.0,0.0,0.0,0.0,0.0,0.0,0.0,0.00733038285838,0.18561576595,0.0782780169519,0.000169,0.0,0.0,0.0,0.000169,0.0,0.0,0.0,0.000169,0.33354,0.05886,9.85905,0.006889,0.0,0.0,0.0,0.006889,0.0,0.0,0.0,0.006889
1421850641189201832,351566,1421850641189201832,fcu,-0.0105790015455,-0.0197545326267,-0.71437588004,0.699403277933,0.0,0.0,0.0,0.0,0.0,0.0,0.0,0.0,0.0,-0.0871791961371,0.140848070636,-0.0662352451132,0.000169,0.0,0.0,0.0,0.000169,0.0,0.0,0.0,0.000169,0.33354,0.05886,9.85905,0.006889,0.0,0.0,0.0,0.006889,0.0,0.0,0.0,0.006889
1421850641191201925,351567,1421850641191201925,fcu,-0.0107027832705,-0.0196289162952,-0.714440348544,0.699339076878,0.0,0.0,0.0,0.0,0.0,0.0,0.0,0.0,0.0,-0.0411025038845,-0.200538331054,-0.0861319985859,0.000169,0.0,0.0,0.0,0.000169,0.0,0.0,0.0,0.000169,0.33354,0.05886,9.85905,0.006889,0.0,0.0,0.0,0.006889,0.0,0.0,0.0,0.006889
1421850641193202019,351568,1421850641193202019,fcu,-0.0108278885082,-0.0196266361715,-0.714501354582,0.699274886066,0.0,0.0,0.0,0.0,0.0,0.0,0.0,0.0,0.0,-0.0261799387799,-0.166242611252,-0.17723818554,0.000169,0.0,0.0,0.0,0.000169,0.0,0.0,0.0,0.000169,0.2943,-0.01962,9.98658,0.006889,0.0,0.0,0.0,0.006889,0.0,0.0,0.0,0.006889
1421850641197203875,351570,1421850641197203875,fcu,-0.0106387118052,-0.0195688333045,-0.714381046934,0.699402315091,0.0,0.0,0.0,0.0,0.0,0.0,0.0,0.0,0.0,-0.0604756585816,0.269129770658,0.120427718388,0.000169,0.0,0.0,0.0,0.000169,0.0,0.0,0.0,0.000169,0.31392,-0.00981,9.9081,0.006889,0.0,0.0,0.0,0.006889,0.0,0.0,0.0,0.006889
1421850641199203968,351571,1421850641199203968,fcu,-0.0104516358854,-0.0193857816822,-0.714386204168,0.699404965717,0.0,0.0,0.0,0.0,0.0,0.0,0.0,0.0,0.0,0.00209439510239,0.203156324932,-0.01308996939,0.000169,0.0,0.0,0.0,0.000169,0.0,0.0,0.0,0.000169,0.31392,-0.00981,9.9081,0.006889,0.0,0.0,0.0,0.006889,0.0,0.0,0.0,0.006889
1421850641201203823,351572,1421850641201203823,fcu,-0.010634739317,-0.019198755149,-0.714391254872,0.699402205517,0.0,0.0,0.0,0.0,0.0,0.0,0.0,0.0,0.0,-0.189804556154,-0.183259571459,0.0162315620435,0.000169,0.0,0.0,0.0,0.000169,0.0,0.0,0.0,0.000169,0.33354,0.06867,9.86886,0.006889,0.0,0.0,0.0,0.006889,0.0,0.0,0.0,0.006889
1421850641203205824,351573,1421850641203205824,fcu,-0.0107581320426,-0.0191974306284,-0.714391235221,0.699400374815,0.0,0.0,0.0,0.0,0.0,0.0,0.0,0.0,0.0,-0.102101761242,-0.149487450433,-0.0761836218496,0.000169,0.0,0.0,0.0,0.000169,0.0,0.0,0.0,0.000169,0.33354,0.06867,9.86886,0.006889,0.0,0.0,0.0,0.006889,0.0,0.0,0.0,0.006889
1421850641205205917,351574,1421850641205205917,fcu,-0.010636414684,-0.0191978270199,-0.714452286508,0.699339860457,0.0,0.0,0.0,0.0,0.0,0.0,0.0,0.0,0.0,0.169122404518,0.133779487165,0.0306305283725,0.000169,0.0,0.0,0.0,0.000169,0.0,0.0,0.0,0.000169,0.26487,-0.03924,9.96696,0.006889,0.0,0.0,0.0,0.006889,0.0,0.0,0.0,0.006889
1421850641207206011,351575,1421850641207206011,fcu,-0.0104506577057,-0.0191381498073,-0.71445399827,0.69934254792,0.0,0.0,0.0,0.0,0.0,0.0,0.0,0.0,0.0,0.131423292675,0.279863545557,0.117547925122,0.000169,0.0,0.0,0.0,0.000169,0.0,0.0,0.0,0.000169,0.26487,-0.03924,9.96696,0.006889,0.0,0.0,0.0,0.006889,0.0,0.0,0.0,0.006889
1421850641209208012,351576,1421850641209208012,fcu,-0.0102619108922,-0.0189560070134,-0.714398010078,0.699407496513,0.0,0.0,0.0,0.0,0.0,0.0,0.0,0.0,0.0,0.0617846555206,0.225147473507,0.0644026493986,0.000169,0.0,0.0,0.0,0.000169,0.0,0.0,0.0,0.000169,0.30411,-0.02943,9.95715,0.006889,0.0,0.0,0.0,0.006889,0.0,0.0,0.0,0.006889
1421850641213207960,351578,1421850641213207960,fcu,-0.0103826561775,-0.0187079584421,-0.714404602638,0.69940565945,0.0,0.0,0.0,0.0,0.0,0.0,0.0,0.0,0.0,-0.208392312688,-0.222529479629,0.0115191730632,0.000169,0.0,0.0,0.0,0.000169,0.0,0.0,0.0,0.000169,0.27468,0.05886,9.87867,0.006889,0.0,0.0,0.0,0.006889,0.0,0.0,0.0,0.006889
1421850641215208054,351579,1421850641215208054,fcu,-0.0105090169159,-0.0188290792105,-0.714462320241,0.699341561253,0.0,0.0,0.0,0.0,0.0,0.0,0.0,0.0,0.0,0.224623874732,-0.0246091424531,-0.109955742876,0.000169,0.0,0.0,0.0,0.000169,0.0,0.0,0.0,0.000169,0.27468,0.05886,9.87867,0.006889,0.0,0.0,0.0,0.006889,0.0,0.0,0.0,0.006889
1421850641219209909,351581,1421850641219209909,fcu,-0.0101358685366,-0.0187106075068,-0.714404640322,0.699409170102,0.0,0.0,0.0,0.0,0.0,0.0,0.0,0.0,0.0,0.0463384916404,0.458410728036,0.0882263936883,0.000169,0.0,0.0,0.0,0.000169,0.0,0.0,0.0,0.000169,0.25506,-0.08829,10.04544,0.006889,0.0,0.0,0.0,0.006889,0.0,0.0,0.0,0.006889
1421850641221210003,351582,1421850641221210003,fcu,-0.00988350628529,-0.0183440288025,-0.714353394902,0.699474831644,0.0,0.0,0.0,0.0,0.0,0.0,0.0,0.0,0.0,-0.259181393921,0.195302343298,0.00471238898038,0.000169,0.0,0.0,0.0,0.000169,0.0,0.0,0.0,0.000169,0.31392,0.0,9.93753,0.006889,0.0,0.0,0.0,0.006889,0.0,0.0,0.0,0.006889
1421850641223212004,351583,1421850641223212004,fcu,-0.00994323348595,-0.0181583246652,-0.714358191107,0.699473932432,0.0,0.0,0.0,0.0,0.0,0.0,0.0,0.0,0.0,-0.340339204139,0.138753675534,-0.0272271363311,0.000169,0.0,0.0,0.0,0.000169,0.0,0.0,0.0,0.000169,0.31392,0.0,9.93753,0.006889,0.0,0.0,0.0,0.006889,0.0,0.0,0.0,0.006889
1421850641225211859,351584,1421850641225211859,fcu,-0.0105023420568,-0.0182122625522,-0.714478579882,0.6993413853,0.0,0.0,0.0,0.0,0.0,0.0,0.0,0.0,0.0,-0.224623874732,-0.353429173529,-0.125663706144,0.000169,0.0,0.0,0.0,0.000169,0.0,0.0,0.0,0.000169,0.21582,0.03924,9.82962,0.006889,0.0,0.0,0.0,0.006889,0.0,0.0,0.0,0.006889
1421850641227211952,351585,1421850641227211952,fcu,-0.0105647060526,-0.0182732772073,-0.714476968381,0.699340500743,0.0,0.0,0.0,0.0,0.0,0.0,0.0,0.0,0.0,0.0955567765467,-0.13796827737,-0.117547925122,0.000169,0.0,0.0,0.0,0.000169,0.0,0.0,0.0,0.000169,0.21582,0.03924,9.82962,0.006889,0.0,0.0,0.0,0.006889,0.0,0.0,0.0,0.006889
1421850641229212046,351586,1421850641229212046,fcu,-0.0102568902485,-0.0183382976096,-0.714475409472,0.699344973745,0.0,0.0,0.0,0.0,0.0,0.0,0.0,0.0,0.0,0.316777259237,0.224100275956,0.0589048622548,0.000169,0.0,0.0,0.0,0.000169,0.0,0.0,0.0,0.000169,0.31392,-0.06867,10.02582,0.006889,0.0,0.0,0.0,0.006889,0.0,0.0,0.0,0.006889
1421850641231214046,351587,1421850641231214046,fcu,-0.00963277564695,-0.0179765606031,-0.714362992468,0.699478068201,0.0,0.0,0.0,0.0,0.0,0.0,0.0,0.0,0.0,0.0353429173529,0.350811179651,0.0782780169519,0.000169,0.0,0.0,0.0,0.000169,0.0,0.0,0.0,0.000169,0.31392,-0.06867,10.02582,0.006889,0.0,0.0,0.0,0.006889,0.0,0.0,0.0,0.006889
1421850641233213902,351588,1421850641233213902,fcu,-0.00963146217636,-0.0178531942457,-0.714366136746,0.699478034724,0.0,0.0,0.0,0.0,0.0,0.0,0.0,0.0,0.0,-0.178808981867,0.133517687778,0.0303687289847,0.000169,0.0,0.0,0.0,0.000169,0.0,0.0,0.0,0.000169,0.33354,0.07848,9.83943,0.006889,0.0,0.0,0.0,0.006889,0.0,0.0,0.0,0.006889
1421850641235213995,351589,1421850641235213995,fcu,-0.0101863096672,-0.0176613428509,-0.714431769113,0.699408009209,0.0,0.0,0.0,0.0,0.0,0.0,0.0,0.0,0.0,-0.194778744523,-0.420188017418,-0.104981554507,0.000169,0.0,0.0,0.0,0.000169,0.0,0.0,0.0,0.000169,0.33354,0.07848,9.83943,0.006889,0.0,0.0,0.0,0.006889,0.0,0.0,0.0,0.006889
1421850641237215996,351590,1421850641237215996,fcu,-0.0103720624065,-0.0177210396521,-0.714430187466,0.699405384818,0.0,0.0,0.0,0.0,0.0,0.0,0.0,0.0,0.0,-0.26284658535,-0.440608369666,-0.107337748998,0.000169,0.0,0.0,0.0,0.000169,0.0,0.0,0.0,0.000169,0.20601,0.06867,9.86886,0.006889,0.0,0.0,0.0,0.006889,0.0,0.0,0.0,0.006889
1421850641239215851,351591,1421850641239215851,fcu,-0.0104359729837,-0.017781150208,-0.714489651057,0.699342162105,0.0,0.0,0.0,0.0,0.0,0.0,0.0,0.0,0.0,0.139800873085,0.00654498469498,-0.00549778714378,0.000169,0.0,0.0,0.0,0.000169,0.0,0.0,0.0,0.000169,0.20601,0.06867,9.86886,0.006889,0.0,0.0,0.0,0.006889,0.0,0.0,0.0,0.006889
1421850641241215944,351592,1421850641241215944,fcu,-0.00981480214159,-0.0175419488649,-0.714434914698,0.699413112794,0.0,0.0,0.0,0.0,0.0,0.0,0.0,0.0,0.0,0.0733038285838,0.573078859892,0.0877027949127,0.000169,0.0,0.0,0.0,0.000169,0.0,0.0,0.0,0.000169,0.34335,-0.0981,10.08468,0.006889,0.0,0.0,0.0,0.006889,0.0,0.0,0.0,0.006889
1421850641243216038,351593,1421850641243216038,fcu,-0.00962620823616,-0.0173597233847,-0.714378498543,0.699477903109,0.0,0.0,0.0,0.0,0.0,0.0,0.0,0.0,0.0,0.0654498469498,0.546637121725,0.0539306738866,0.000169,0.0,0.0,0.0,0.000169,0.0,0.0,0.0,0.000169,0.34335,-0.0981,10.08468,0.006889,0.0,0.0,0.0,0.006889,0.0,0.0,0.0,0.006889
1421850641245218039,351594,1421850641245218039,fcu,-0.00974846974642,-0.0171108203201,-0.714445570685,0.69941383579,0.0,0.0,0.0,0.0,0.0,0.0,0.0,0.0,0.0,-0.319395253115,-0.105766952671,-0.104196156344,0.000169,0.0,0.0,0.0,0.000169,0.0,0.0,0.0,0.000169,0.34335,-0.0981,10.08468,0.006889,0.0,0.0,0.0,0.006889,0.0,0.0,0.0,0.006889
1421850641247217894,351595,1421850641247217894,fcu,-0.00987186461659,-0.0171094957765,-0.714445552652,0.699412155841,0.0,0.0,0.0,0.0,0.0,0.0,0.0,0.0,0.0,-0.221482282078,-0.351072979039,-0.139800873085,0.000169,0.0,0.0,0.0,0.000169,0.0,0.0,0.0,0.000169,0.28449,0.11772,9.81,0.006889,0.0,0.0,0.0,0.006889,0.0,0.0,0.0,0.006889
1421850641249217987,351596,1421850641249217987,fcu,-0.0101811757296,-0.0170436110905,-0.714508038155,0.699345495727,0.0,0.0,0.0,0.0,0.0,0.0,0.0,0.0,0.0,-0.252898208614,-0.125401906756,-0.00706858347058,0.000169,0.0,0.0,0.0,0.000169,0.0,0.0,0.0,0.000169,0.28449,0.11772,9.81,0.006889,0.0,0.0,0.0,0.006889,0.0,0.0,0.0,0.006889
1421850641251219988,351597,1421850641251219988,fcu,-0.00987068757326,-0.0168618939567,-0.714512550724,0.699349741486,0.0,0.0,0.0,0.0,0.0,0.0,0.0,0.0,0.0,0.139800873085,0.219387886976,0.00942477796077,0.000169,0.0,0.0,0.0,0.000169,0.0,0.0,0.0,0.000169,0.32373,-0.06867,10.07487,0.006889,0.0,0.0,0.0,0.006889,0.0,0.0,0.0,0.006889
1421850641253219843,351598,1421850641253219843,fcu,-0.00943813714132,-0.0168048821697,-0.714514091267,0.699355511084,0.0,0.0,0.0,0.0,0.0,0.0,0.0,0.0,0.0,0.314159265359,0.338244809037,0.0141371669412,0.000169,0.0,0.0,0.0,0.000169,0.0,0.0,0.0,0.000169,0.32373,-0.06867,10.07487,0.006889,0.0,0.0,0.0,0.006889,0.0,0.0,0.0,0.006889
1421850641255219936,351599,1421850641255219936,fcu,-0.00949916738685,-0.0167425289886,-0.714515555049,0.699354684788,0.0,0.0,0.0,0.0,0.0,0.0,0.0,0.0,0.0,-0.11414453308,-0.0795870138909,0.0243473430653,0.000169,0.0,0.0,0.0,0.000169,0.0,0.0,0.0,0.000169,0.32373,-0.06867,10.07487,0.006889,0.0,0.0,0.0,0.006889,0.0,0.0,0.0,0.006889
1421850641257220030,351600,1421850641257220030,fcu,-0.00962256271986,-0.0167411936705,-0.714515537336,0.699353047914,0.0,0.0,0.0,0.0,0.0,0.0,0.0,0.0,0.0,-0.300545697193,-0.218078890037,-0.0164933614313,0.000169,0.0,0.0,0.0,0.000169,0.0,0.0,0.0,0.000169,0.36297,0.01962,9.92772,0.006889,0.0,0.0,0.0,0.006889,0.0,0.0,0.0,0.006889
1421850641259222031,351601,1421850641259222031,fcu,-0.0098693525194,-0.0167385230436,-0.71451550121,0.699349709557,0.0,0.0,0.0,0.0,0.0,0.0,0.0,0.0,0.0,-0.281696141272,-0.222005880854,-0.0824668071567,0.000169,0.0,0.0,0.0,0.000169,0.0,0.0,0.0,0.000169,0.36297,0.01962,9.92772,0.006889,0.0,0.0,0.0,0.006889,0.0,0.0,0.0,0.006889
1421850641261221886,351602,1421850641261221886,fcu,-0.0100524415049,-0.0165514627513,-0.714519858859,0.699347101801,0.0,0.0,0.0,0.0,0.0,0.0,0.0,0.0,0.0,-0.0832522053201,0.125663706144,0.0149225651046,0.000169,0.0,0.0,0.0,0.000169,0.0,0.0,0.0,0.000169,0.30411,0.00981,9.97677,0.006889,0.0,0.0,0.0,0.006889,0.0,0.0,0.0,0.006889
1421850641263221979,351603,1421850641263221979,fcu,-0.00974462270588,-0.0166164869293,-0.714518448343,0.699351357809,0.0,0.0,0.0,0.0,0.0,0.0,0.0,0.0,0.0,0.381965306799,0.106814150222,-0.0604756585816,0.000169,0.0,0.0,0.0,0.000169,0.0,0.0,0.0,0.000169,0.30411,0.00981,9.97677,0.006889,0.0,0.0,0.0,0.006889,0.0,0.0,0.0,0.006889
1421850641267223835,351605,1421850641267223835,fcu,-0.00949382711628,-0.016249040243,-0.714527141667,0.699354559404,0.0,0.0,0.0,0.0,0.0,0.0,0.0,0.0,0.0,-0.206036118198,-0.0167551608191,0.0877027949127,0.000169,0.0,0.0,0.0,0.000169,0.0,0.0,0.0,0.000169,0.36297,-0.03924,9.99639,0.006889,0.0,0.0,0.0,0.006889,0.0,0.0,0.0,0.006889
1421850641269223928,351606,1421850641269223928,fcu,-0.00992370689163,-0.0160593062964,-0.71453133481,0.699348690066,0.0,0.0,0.0,0.0,0.0,0.0,0.0,0.0,0.0,-0.381441708023,-0.186401164113,-0.0251327412287,0.000169,0.0,0.0,0.0,0.000169,0.0,0.0,0.0,0.000169,0.36297,-0.03924,9.99639,0.006889,0.0,0.0,0.0,0.006889,0.0,0.0,0.0,0.006889
1421850641271224022,351607,1421850641271224022,fcu,-0.0102938889159,-0.016055300385,-0.714531278524,0.699343488703,0.0,0.0,0.0,0.0,0.0,0.0,0.0,0.0,0.0,-0.215984494934,-0.0662352451132,-0.00340339204139,0.000169,0.0,0.0,0.0,0.000169,0.0,0.0,0.0,0.000169,0.36297,-0.03924,9.99639,0.006889,0.0,0.0,0.0,0.006889,0.0,0.0,0.0,0.006889
1421850641273226023,351608,1421850641273226023,fcu,-0.0102315245578,-0.0159942810057,-0.714532696004,0.699344353821,0.0,0.0,0.0,0.0,0.0,0.0,0.0,0.0,0.0,0.000261799387799,0.0790634151153,-0.0178023583703,0.000169,0.0,0.0,0.0,0.000169,0.0,0.0,0.0,0.000169,0.30411,0.0,10.06506,0.006889,0.0,0.0,0.0,0.006889,0.0,0.0,0.0,0.006889
1421850641285228014,351614,1421850641285228014,fcu,-0.0101678250273,-0.015809886835,-0.714536897034,0.699345183432,0.0,0.0,0.0,0.0,0.0,0.0,0.0,0.0,0.0,0.3175626574,-0.0340339204139,-0.0570722665402,0.000169,0.0,0.0,0.0,0.000169,0.0,0.0,0.0,0.000169,0.37278,-0.11772,10.12392,0.006889,0.0,0.0,0.0,0.006889,0.0,0.0,0.0,0.006889
1421850641287230015,351615,1421850641287230015,fcu,-0.0101067956084,-0.0158722418821,-0.71453551464,0.699346068079,0.0,0.0,0.0,0.0,0.0,0.0,0.0,0.0,0.0,0.162577419823,0.0654498469498,-0.010471975512,0.000169,0.0,0.0,0.0,0.000169,0.0,0.0,0.0,0.000169,0.37278,-0.11772,10.12392,0.006889,0.0,0.0,0.0,0.006889,0.0,0.0,0.0,0.006889
1421850641295231819,351619,1421850641295231819,fcu,-0.0104663210316,-0.0150055150025,-0.714493420982,0.699402918222,0.0,0.0,0.0,0.0,0.0,0.0,0.0,0.0,0.0,-0.149225651046,-0.171216799621,-0.0989601685881,0.000169,0.0,0.0,0.0,0.000169,0.0,0.0,0.0,0.000169,0.33354,0.05886,9.9081,0.006889,0.0,0.0,0.0,0.006889,0.0,0.0,0.0,0.006889
1421850641297231913,351620,1421850641297231913,fcu,-0.0103455723567,-0.0151293146362,-0.714551823,0.69934238054,0.0,0.0,0.0,0.0,0.0,0.0,0.0,0.0,0.0,0.21415189922,0.00654498469498,-0.0463384916404,0.000169,0.0,0.0,0.0,0.000169,0.0,0.0,0.0,0.000169,0.33354,0.05886,9.9081,0.006889,0.0,0.0,0.0,0.006889,0.0,0.0,0.0,0.006889
1421850641299232006,351621,1421850641299232006,fcu,-0.0101598143515,-0.0150696287664,-0.714553178784,0.69934500724,0.0,0.0,0.0,0.0,0.0,0.0,0.0,0.0,0.0,0.0788016157275,0.255254403104,0.0,0.000169,0.0,0.0,0.0,0.000169,0.0,0.0,0.0,0.000169,0.40221,-0.17658,10.25145,0.006889,0.0,0.0,0.0,0.006889,0.0,0.0,0.0,0.006889
1421850641301234007,351622,1421850641301234007,fcu,-0.0100311320086,-0.0147017041809,-0.714500015491,0.699409010629,0.0,0.0,0.0,0.0,0.0,0.0,0.0,0.0,0.0,-0.0932005820565,0.228812664936,0.146607657168,0.000169,0.0,0.0,0.0,0.000169,0.0,0.0,0.0,0.000169,0.40221,-0.17658,10.25145,0.006889,0.0,0.0,0.0,0.006889,0.0,0.0,0.0,0.006889
1421850641303233862,351623,1421850641303233862,fcu,-0.0100883088711,-0.0145177335098,-0.714381778004,0.699532798869,0.0,0.0,0.0,0.0,0.0,0.0,0.0,0.0,0.0,-0.398720467618,0.34374259618,0.0921533845053,0.000169,0.0,0.0,0.0,0.000169,0.0,0.0,0.0,0.000169,0.36297,0.04905,10.01601,0.006889,0.0,0.0,0.0,0.006889,0.0,0.0,0.0,0.006889
1421850641305233955,351624,1421850641305233955,fcu,-0.0102103425909,-0.0142687783758,-0.714447863651,0.69946865619,0.0,0.0,0.0,0.0,0.0,0.0,0.0,0.0,0.0,0.00706858347058,-0.0240855436775,-0.0473856891916,0.000169,0.0,0.0,0.0,0.000169,0.0,0.0,0.0,0.000169,0.36297,0.04905,10.01601,0.006889,0.0,0.0,0.0,0.006889,0.0,0.0,0.0,0.006889
1421850641307235956,351625,1421850641307235956,fcu,-0.0101493023968,-0.0143311256592,-0.714446615745,0.699469544547,0.0,0.0,0.0,0.0,0.0,0.0,0.0,0.0,0.0,0.0683296402156,-0.0565486677646,-0.103672557568,0.000169,0.0,0.0,0.0,0.000169,0.0,0.0,0.0,0.000169,0.32373,-0.02943,9.99639,0.006889,0.0,0.0,0.0,0.006889,0.0,0.0,0.0,0.006889
1421850641309236050,351626,1421850641309236050,fcu,-0.0100895181544,-0.0143925924116,-0.714506399988,0.699408077794,0.0,0.0,0.0,0.0,0.0,0.0,0.0,0.0,0.0,0.172002197784,-0.0693768377668,-0.0764454212374,0.000169,0.0,0.0,0.0,0.000169,0.0,0.0,0.0,0.000169,0.32373,-0.02943,9.99639,0.006889,0.0,0.0,0.0,0.006889,0.0,0.0,0.0,0.006889
1421850641311235905,351627,1421850641311235905,fcu,-0.0101493023968,-0.0143311256592,-0.714446615745,0.699469544547,0.0,0.0,0.0,0.0,0.0,0.0,0.0,0.0,0.0,-0.0403171057211,0.122783912878,0.0180641577581,0.000169,0.0,0.0,0.0,0.000169,0.0,0.0,0.0,0.000169,0.32373,-0.02943,9.99639,0.006889,0.0,0.0,0.0,0.006889,0.0,0.0,0.0,0.006889
1421850641313235998,351628,1421850641313235998,fcu,-0.0100207487875,-0.0139631699173,-0.714393053686,0.699533544102,0.0,0.0,0.0,0.0,0.0,0.0,0.0,0.0,0.0,-0.304734487398,0.270438767597,0.148178453494,0.000169,0.0,0.0,0.0,0.000169,0.0,0.0,0.0,0.000169,0.35316,-0.08829,10.16316,0.006889,0.0,0.0,0.0,0.006889,0.0,0.0,0.0,0.006889
1421850641315237999,351629,1421850641315237999,fcu,-0.0101415373933,-0.0137151018489,-0.714397902764,0.699531758912,0.0,0.0,0.0,0.0,0.0,0.0,0.0,0.0,0.0,-0.0916297857297,0.0788016157275,-0.0327249234749,0.000169,0.0,0.0,0.0,0.000169,0.0,0.0,0.0,0.000169,0.35316,-0.08829,10.16316,0.006889,0.0,0.0,0.0,0.006889,0.0,0.0,0.0,0.006889
1421850641319237947,351631,1421850641319237947,fcu,-0.0100791888137,-0.0136540618166,-0.714399115334,0.699532615793,0.0,0.0,0.0,0.0,0.0,0.0,0.0,0.0,0.0,-0.001308996939,0.0887499924639,-0.0837758040957,0.000169,0.0,0.0,0.0,0.000169,0.0,0.0,0.0,0.000169,0.32373,0.10791,9.99639,0.006889,0.0,0.0,0.0,0.006889,0.0,0.0,0.0,0.006889
1421850641321239948,351632,1421850641321239948,fcu,-0.00989725908516,-0.0138402269515,-0.714456559472,0.699472885113,0.0,0.0,0.0,0.0,0.0,0.0,0.0,0.0,0.0,0.113620934305,0.000785398163397,-0.0748746249106,0.000169,0.0,0.0,0.0,0.000169,0.0,0.0,0.0,0.000169,0.33354,-0.10791,10.16316,0.006889,0.0,0.0,0.0,0.006889,0.0,0.0,0.0,0.006889
1421850641335243940,351639,1421850641335243940,fcu,-0.00976240343564,-0.012979557645,-0.71435099352,0.699599088492,0.0,0.0,0.0,0.0,0.0,0.0,0.0,0.0,0.0,-0.177499984928,0.143727863902,0.116238928183,0.000169,0.0,0.0,0.0,0.000169,0.0,0.0,0.0,0.000169,0.35316,-0.06867,10.18278,0.006889,0.0,0.0,0.0,0.006889,0.0,0.0,0.0,0.006889
1421850641337244034,351640,1421850641337244034,fcu,-0.00975742658978,-0.0126102508241,-0.714296691221,0.699661354593,0.0,0.0,0.0,0.0,0.0,0.0,0.0,0.0,0.0,-0.255516202492,0.224885674119,0.0303687289847,0.000169,0.0,0.0,0.0,0.000169,0.0,0.0,0.0,0.000169,0.35316,-0.06867,10.18278,0.006889,0.0,0.0,0.0,0.006889,0.0,0.0,0.0,0.006889
1421850641343245983,351643,1421850641343245983,fcu,-0.00994516291456,-0.0125440319555,-0.714480917048,0.699471772248,0.0,0.0,0.0,0.0,0.0,0.0,0.0,0.0,0.0,0.118333323285,-0.0877027949127,-0.100269165527,0.000169,0.0,0.0,0.0,0.000169,0.0,0.0,0.0,0.000169,0.32373,-0.08829,10.04544,0.006889,0.0,0.0,0.0,0.006889,0.0,0.0,0.0,0.006889
1421850641345245838,351644,1421850641345245838,fcu,-0.00975723485276,-0.012486012379,-0.714359953053,0.699598994665,0.0,0.0,0.0,0.0,0.0,0.0,0.0,0.0,0.0,-0.0837758040957,0.280648943721,0.208392312688,0.000169,0.0,0.0,0.0,0.000169,0.0,0.0,0.0,0.000169,0.32373,-0.08829,10.04544,0.006889,0.0,0.0,0.0,0.006889,0.0,0.0,0.0,0.006889
1421850641355247974,351649,1421850641355247974,fcu,-0.009939096943,-0.0121756051023,-0.714365351146,0.699596393697,0.0,0.0,0.0,0.0,0.0,0.0,0.0,0.0,0.0,0.128543499409,0.00628318530718,-0.0306305283725,0.000169,0.0,0.0,0.0,0.000169,0.0,0.0,0.0,0.000169,0.37278,0.01962,9.97677,0.006889,0.0,0.0,0.0,0.006889,0.0,0.0,0.0,0.006889
1421850641357249975,351650,1421850641357249975,fcu,-0.00993675298511,-0.012053084067,-0.714306429333,0.699658709027,0.0,0.0,0.0,0.0,0.0,0.0,0.0,0.0,0.0,-0.0921533845053,0.223314877793,0.154199839414,0.000169,0.0,0.0,0.0,0.000169,0.0,0.0,0.0,0.000169,0.41202,-0.08829,10.21221,0.006889,0.0,0.0,0.0,0.006889,0.0,0.0,0.0,0.006889
1421850641361249924,351652,1421850641361249924,fcu,-0.0098695563476,-0.0116227240488,-0.71425267181,0.699721819693,0.0,0.0,0.0,0.0,0.0,0.0,0.0,0.0,0.0,-0.0973893722613,0.0345575191895,-0.00575958653158,0.000169,0.0,0.0,0.0,0.000169,0.0,0.0,0.0,0.000169,0.44145,0.04905,10.12392,0.006889,0.0,0.0,0.0,0.006889,0.0,0.0,0.0,0.006889
1421850641363251925,351653,1421850641363251925,fcu,-0.00993061855795,-0.0115603937005,-0.714253683365,0.699720955748,0.0,0.0,0.0,0.0,0.0,0.0,0.0,0.0,0.0,-0.173572994111,0.00261799387799,-0.0822050077689,0.000169,0.0,0.0,0.0,0.000169,0.0,0.0,0.0,0.000169,0.44145,0.04905,10.12392,0.006889,0.0,0.0,0.0,0.006889,0.0,0.0,0.0,0.006889
1421850641375253916,351659,1421850641375253916,fcu,-0.0101132052284,-0.0111248552864,-0.714382761317,0.699593618472,0.0,0.0,0.0,0.0,0.0,0.0,0.0,0.0,0.0,-0.0544542726622,-0.15105824676,-0.0688532389912,0.000169,0.0,0.0,0.0,0.000169,0.0,0.0,0.0,0.000169,0.40221,0.00981,10.01601,0.006889,0.0,0.0,0.0,0.006889,0.0,0.0,0.0,0.006889
1421850641377255917,351660,1421850641377255917,fcu,-0.0101742562502,-0.0110625135876,-0.714383729424,0.699592733265,0.0,0.0,0.0,0.0,0.0,0.0,0.0,0.0,0.0,-0.0798488132787,-0.0332485222505,0.00863937979737,0.000169,0.0,0.0,0.0,0.000169,0.0,0.0,0.0,0.000169,0.40221,0.00981,10.01601,0.006889,0.0,0.0,0.0,0.006889,0.0,0.0,0.0,0.006889
1421850641383255959,351663,1421850641383255959,fcu,-0.00992299461001,-0.0108200469202,-0.714265507532,0.699720833985,0.0,0.0,0.0,0.0,0.0,0.0,0.0,0.0,0.0,-0.12723450247,0.0848230016469,-0.00183259571459,0.000169,0.0,0.0,0.0,0.000169,0.0,0.0,0.0,0.000169,0.47088,-0.02943,10.29069,0.006889,0.0,0.0,0.0,0.006889,0.0,0.0,0.0,0.006889
1421850641385257959,351664,1421850641385257959,fcu,-0.0101080364176,-0.0106312882557,-0.714390428723,0.699593538177,0.0,0.0,0.0,0.0,0.0,0.0,0.0,0.0,0.0,-0.229336263712,-0.0890117918517,-0.138753675534,0.000169,0.0,0.0,0.0,0.000169,0.0,0.0,0.0,0.000169,0.43164,0.07848,10.15335,0.006889,0.0,0.0,0.0,0.006889,0.0,0.0,0.0,0.006889
1421850641393260002,351668,1421850641393260002,fcu,-0.0101049100786,-0.0105096594706,-0.714270178751,0.699718192987,0.0,0.0,0.0,0.0,0.0,0.0,0.0,0.0,0.0,-0.0604756585816,0.121998514714,0.0575958653158,0.000169,0.0,0.0,0.0,0.000169,0.0,0.0,0.0,0.000169,0.48069,0.00981,10.26126,0.006889,0.0,0.0,0.0,0.006889,0.0,0.0,0.0,0.006889
1421850641395259857,351669,1421850641395259857,fcu,-0.0102902777562,-0.0104451589525,-0.714332133966,0.699653207827,0.0,0.0,0.0,0.0,0.0,0.0,0.0,0.0,0.0,-0.233263254529,-0.0764454212374,-0.0659734457254,0.000169,0.0,0.0,0.0,0.000169,0.0,0.0,0.0,0.000169,0.48069,0.00981,10.26126,0.006889,0.0,0.0,0.0,0.006889,0.0,0.0,0.0,0.006889
1421850641403261900,351673,1421850641403261900,fcu,-0.0101650602315,-0.0104482147075,-0.714210028598,0.69977963775,0.0,0.0,0.0,0.0,0.0,0.0,0.0,0.0,0.0,0.0324631240871,0.154461638801,0.0261799387799,0.000169,0.0,0.0,0.0,0.000169,0.0,0.0,0.0,0.000169,0.42183,-0.02943,10.2024,0.006889,0.0,0.0,0.0,0.006889,0.0,0.0,0.0,0.006889
1421850641405263901,351674,1421850641405263901,fcu,-0.0102270337871,-0.0103849956475,-0.714272002154,0.69971641869,0.0,0.0,0.0,0.0,0.0,0.0,0.0,0.0,0.0,-0.0871791961371,0.0206821516361,-0.0175405589825,0.000169,0.0,0.0,0.0,0.000169,0.0,0.0,0.0,0.000169,0.44145,0.0,10.26126,0.006889,0.0,0.0,0.0,0.006889,0.0,0.0,0.0,0.006889
1421850641409263849,351676,1421850641409263849,fcu,-0.0102880955247,-0.0103226636171,-0.714272905696,0.699715523549,0.0,0.0,0.0,0.0,0.0,0.0,0.0,0.0,0.0,-0.0706858347058,-0.061261056745,-0.0484328867428,0.000169,0.0,0.0,0.0,0.000169,0.0,0.0,0.0,0.000169,0.44145,0.0,10.26126,0.006889,0.0,0.0,0.0,0.006889,0.0,0.0,0.0,0.006889
1421850641411263943,351677,1421850641411263943,fcu,-0.0102236076555,-0.0101391006462,-0.71421455601,0.699778711071,0.0,0.0,0.0,0.0,0.0,0.0,0.0,0.0,0.0,0.0568104671524,0.120951317163,0.0646644487864,0.000169,0.0,0.0,0.0,0.000169,0.0,0.0,0.0,0.000169,0.37278,0.05886,10.03563,0.006889,0.0,0.0,0.0,0.006889,0.0,0.0,0.0,0.006889
1421850641419267893,351681,1421850641419267893,fcu,-0.0102837954257,-0.0100776710987,-0.714154368239,0.699840140619,0.0,0.0,0.0,0.0,0.0,0.0,0.0,0.0,0.0,-0.157603231455,-0.00445058959259,-0.00706858347058,0.000169,0.0,0.0,0.0,0.000169,0.0,0.0,0.0,0.000169,0.37278,0.06867,10.03563,0.006889,0.0,0.0,0.0,0.006889,0.0,0.0,0.0,0.006889
1421850641422267914,351682,1421850641422267914,fcu,-0.0102214736611,-0.0100165984869,-0.714155262951,0.699841017397,0.0,0.0,0.0,0.0,0.0,0.0,0.0,0.0,0.0,0.0133517687778,0.065188047562,0.0578576647036,0.000169,0.0,0.0,0.0,0.000169,0.0,0.0,0.0,0.000169,0.37278,0.06867,10.03563,0.006889,0.0,0.0,0.0,0.006889,0.0,0.0,0.0,0.006889
1421850641423267841,351683,1421850641423267841,fcu,-0.0102214736611,-0.0100165984869,-0.714155262951,0.699841017397,0.0,0.0,0.0,0.0,0.0,0.0,0.0,0.0,0.0,0.0133517687778,0.065188047562,0.0578576647036,0.000169,0.0,0.0,0.0,0.000169,0.0,0.0,0.0,0.000169,0.37278,0.06867,10.03563,0.006889,0.0,0.0,0.0,0.006889,0.0,0.0,0.0,0.006889
1421850641425267935,351684,1421850641425267935,fcu,-0.0101604009723,-0.0100789202522,-0.714154386118,0.699841906724,0.0,0.0,0.0,0.0,0.0,0.0,0.0,0.0,0.0,0.152629043087,-0.0358665161285,-0.0206821516361,0.000169,0.0,0.0,0.0,0.000169,0.0,0.0,0.0,0.000169,0.41202,-0.02943,10.16316,0.006889,0.0,0.0,0.0,0.006889,0.0,0.0,0.0,0.006889
1421850641429270029,351686,1421850641429270029,fcu,-0.0102214736611,-0.0100165984869,-0.714155262951,0.699841017397,0.0,0.0,0.0,0.0,0.0,0.0,0.0,0.0,0.0,-0.0976511716491,-0.046862090416,0.0261799387799,0.000169,0.0,0.0,0.0,0.000169,0.0,0.0,0.0,0.000169,0.42183,0.0,10.15335,0.006889,0.0,0.0,0.0,0.006889,0.0,0.0,0.0,0.006889
1421850641431269884,351687,1421850641431269884,fcu,-0.0103427555295,-0.00989285734126,-0.714095925087,0.699901542044,0.0,0.0,0.0,0.0,0.0,0.0,0.0,0.0,0.0,0.0269653369433,0.0617846555206,0.0411025038845,0.000169,0.0,0.0,0.0,0.000169,0.0,0.0,0.0,0.000169,0.42183,0.0,10.15335,0.006889,0.0,0.0,0.0,0.006889,0.0,0.0,0.0,0.006889
1421850641443274021,351693,1421850641443274021,fcu,-0.0104017478824,-0.00970805326817,-0.714037428146,0.699962933697,0.0,0.0,0.0,0.0,0.0,0.0,0.0,0.0,0.0,-0.0981747704247,0.0269653369433,0.0429350995991,0.000169,0.0,0.0,0.0,0.000169,0.0,0.0,0.0,0.000169,0.41202,0.04905,10.11411,0.006889,0.0,0.0,0.0,0.006889,0.0,0.0,0.0,0.006889
1421850641445273876,351694,1421850641445273876,fcu,-0.0104029755056,-0.00983144854664,-0.714035705111,0.699962950839,0.0,0.0,0.0,0.0,0.0,0.0,0.0,0.0,0.0,0.0693768377668,0.0227765467385,-0.0374373124553,0.000169,0.0,0.0,0.0,0.000169,0.0,0.0,0.0,0.000169,0.3924,0.04905,10.07487,0.006889,0.0,0.0,0.0,0.006889,0.0,0.0,0.0,0.006889
1421850641453275919,351698,1421850641453275919,fcu,-0.0105242948075,-0.00970774411216,-0.713976324297,0.70002343337,0.0,0.0,0.0,0.0,0.0,0.0,0.0,0.0,0.0,-0.186662963501,0.261013989636,0.0884881930761,0.000169,0.0,0.0,0.0,0.000169,0.0,0.0,0.0,0.000169,0.3924,0.03924,10.14354,0.006889,0.0,0.0,0.0,0.006889,0.0,0.0,0.0,0.006889
1421850641455277920,351699,1421850641455277920,fcu,-0.0104628311319,-0.00964574171077,-0.714038272615,0.699962023308,0.0,0.0,0.0,0.0,0.0,0.0,0.0,0.0,0.0,-0.0387463093943,-0.0209439510239,-0.0971275728735,0.000169,0.0,0.0,0.0,0.000169,0.0,0.0,0.0,0.000169,0.3924,0.03924,10.14354,0.006889,0.0,0.0,0.0,0.006889,0.0,0.0,0.0,0.006889
1421850641463279963,351703,1421850641463279963,fcu,-0.010647688642,-0.00970652727251,-0.713976306243,0.700021602651,0.0,0.0,0.0,0.0,0.0,0.0,0.0,0.0,0.0,-0.059952059806,0.0832522053201,0.131685092063,0.000169,0.0,0.0,0.0,0.000169,0.0,0.0,0.0,0.000169,0.42183,0.01962,10.18278,0.006889,0.0,0.0,0.0,0.006889,0.0,0.0,0.0,0.006889
1421850641465279818,351704,1421850641465279818,fcu,-0.0105210354249,-0.00946187061869,-0.713918614476,0.700085703841,0.0,0.0,0.0,0.0,0.0,0.0,0.0,0.0,0.0,0.0476474885794,0.135350283492,0.140586271248,0.000169,0.0,0.0,0.0,0.000169,0.0,0.0,0.0,0.000169,0.42183,0.01962,10.18278,0.006889,0.0,0.0,0.0,0.006889,0.0,0.0,0.0,0.006889
1421850641471282005,351707,1421850641471282005,fcu,-0.0107686484364,-0.00945851877299,-0.713979669441,0.70001971705,0.0,0.0,0.0,0.0,0.0,0.0,0.0,0.0,0.0,-0.0102101761242,-0.0892735912395,-0.0675442420522,0.000169,0.0,0.0,0.0,0.000169,0.0,0.0,0.0,0.000169,0.40221,0.03924,10.1043,0.006889,0.0,0.0,0.0,0.006889,0.0,0.0,0.0,0.006889
1421850641473281860,351708,1421850641473281860,fcu,-0.0107686484364,-0.00945851877299,-0.713979669441,0.70001971705,0.0,0.0,0.0,0.0,0.0,0.0,0.0,0.0,0.0,0.0206821516361,0.0382227106187,-0.00916297857297,0.000169,0.0,0.0,0.0,0.000169,0.0,0.0,0.0,0.000169,0.38259,-0.00981,10.21221,0.006889,0.0,0.0,0.0,0.006889,0.0,0.0,0.0,0.006889
1421850641479284048,351711,1421850641479284048,fcu,-0.0106420171717,-0.00921387150739,-0.713921891901,0.700083840912,0.0,0.0,0.0,0.0,0.0,0.0,0.0,0.0,0.0,-0.0523598775598,0.0801106126665,-0.0251327412287,0.000169,0.0,0.0,0.0,0.000169,0.0,0.0,0.0,0.000169,0.38259,-0.00981,10.21221,0.006889,0.0,0.0,0.0,0.006889,0.0,0.0,0.0,0.006889
1421850641481283903,351712,1421850641481283903,fcu,-0.0108875979833,-0.00908806242635,-0.713923470837,0.700080099074,0.0,0.0,0.0,0.0,0.0,0.0,0.0,0.0,0.0,-0.0644026493986,-0.111264739815,-0.0505272818452,0.000169,0.0,0.0,0.0,0.000169,0.0,0.0,0.0,0.000169,0.36297,0.01962,10.13373,0.006889,0.0,0.0,0.0,0.006889,0.0,0.0,0.0,0.006889
1421850641491287947,351717,1421850641491287947,fcu,-0.0108844141857,-0.00884221757294,-0.713865540706,0.700142367315,0.0,0.0,0.0,0.0,0.0,0.0,0.0,0.0,0.0,-0.189804556154,-0.224362075344,-0.0128281700022,0.000169,0.0,0.0,0.0,0.000169,0.0,0.0,0.0,0.000169,0.40221,0.03924,10.07487,0.006889,0.0,0.0,0.0,0.006889,0.0,0.0,0.0,0.006889
1421850641493288040,351718,1421850641493288040,fcu,-0.0109467084311,-0.00890331876421,-0.713864748103,0.70014142993,0.0,0.0,0.0,0.0,0.0,0.0,0.0,0.0,0.0,-0.0240855436775,-0.182212373908,-0.0932005820565,0.000169,0.0,0.0,0.0,0.000169,0.0,0.0,0.0,0.000169,0.40221,0.03924,10.07487,0.006889,0.0,0.0,0.0,0.006889,0.0,0.0,0.0,0.006889
1421850641497289896,351720,1421850641497289896,fcu,-0.0107602490129,-0.00884435191257,-0.713804457028,0.700206534965,0.0,0.0,0.0,0.0,0.0,0.0,0.0,0.0,0.0,0.0164933614313,0.419402619254,0.0840376034835,0.000169,0.0,0.0,0.0,0.000169,0.0,0.0,0.0,0.000169,0.36297,-0.00981,10.19259,0.006889,0.0,0.0,0.0,0.006889,0.0,0.0,0.0,0.006889
1421850641499289989,351721,1421850641499289989,fcu,-0.010510341365,-0.00860084197411,-0.713746464755,0.700272477177,0.0,0.0,0.0,0.0,0.0,0.0,0.0,0.0,0.0,-0.0387463093943,0.318871654339,0.0505272818452,0.000169,0.0,0.0,0.0,0.000169,0.0,0.0,0.0,0.000169,0.48069,-0.01962,10.31031,0.006889,0.0,0.0,0.0,0.006889,0.0,0.0,0.0,0.006889
1421850641505291939,351724,1421850641505291939,fcu,-0.0112557877304,-0.00896202930958,-0.713863912719,0.700136631945,0.0,0.0,0.0,0.0,0.0,0.0,0.0,0.0,0.0,0.170955000233,-0.0824668071567,0.0523598775598,0.000169,0.0,0.0,0.0,0.000169,0.0,0.0,0.0,0.000169,0.34335,0.05886,9.97677,0.006889,0.0,0.0,0.0,0.006889,0.0,0.0,0.0,0.006889
1421850641507292032,351725,1421850641507292032,fcu,-0.01113239533,-0.008963224597,-0.713863931496,0.700138570348,0.0,0.0,0.0,0.0,0.0,0.0,0.0,0.0,0.0,0.154461638801,0.289811922294,0.0850848010347,0.000169,0.0,0.0,0.0,0.000169,0.0,0.0,0.0,0.000169,0.34335,0.05886,9.97677,0.006889,0.0,0.0,0.0,0.006889,0.0,0.0,0.0,0.006889
1421850641511293888,351727,1421850641511293888,fcu,-0.0103827069612,-0.00823272519246,-0.7136898272,0.700336527809,0.0,0.0,0.0,0.0,0.0,0.0,0.0,0.0,0.0,-0.178808981867,0.157079632679,0.0471238898038,0.000169,0.0,0.0,0.0,0.000169,0.0,0.0,0.0,0.000169,0.51993,-0.01962,10.37898,0.006889,0.0,0.0,0.0,0.006889,0.0,0.0,0.0,0.006889
1421850641513293982,351728,1421850641513293982,fcu,-0.0107547819275,-0.00835169693849,-0.713749423531,0.700268765713,0.0,0.0,0.0,0.0,0.0,0.0,0.0,0.0,0.0,-0.178285383091,-0.528311164579,-0.102625360017,0.000169,0.0,0.0,0.0,0.000169,0.0,0.0,0.0,0.000169,0.51993,-0.01962,10.37898,0.006889,0.0,0.0,0.0,0.006889,0.0,0.0,0.0,0.006889
1421850641517295837,351730,1421850641517295837,fcu,-0.0114371322919,-0.00865273996427,-0.71380667358,0.700195940325,0.0,0.0,0.0,0.0,0.0,0.0,0.0,0.0,0.0,-0.0994837673637,-0.262584785963,-0.049480084294,0.000169,0.0,0.0,0.0,0.000169,0.0,0.0,0.0,0.000169,0.35316,0.04905,10.13373,0.006889,0.0,0.0,0.0,0.006889,0.0,0.0,0.0,0.006889
1421850641519295931,351731,1421850641519295931,fcu,-0.0111891633889,-0.00853171060975,-0.713808229651,0.70019984563,0.0,0.0,0.0,0.0,0.0,0.0,0.0,0.0,0.0,0.0746128255228,0.491659250287,0.00261799387799,0.000169,0.0,0.0,0.0,0.000169,0.0,0.0,0.0,0.000169,0.35316,0.04905,10.13373,0.006889,0.0,0.0,0.0,0.006889,0.0,0.0,0.0,0.006889
1421850641529297829,351736,1421850641529297829,fcu,-0.0113705728131,-0.0082224290254,-0.713750796961,0.700259167432,0.0,0.0,0.0,0.0,0.0,0.0,0.0,0.0,0.0,-0.0685914396034,-0.0840376034835,0.0204203522483,0.000169,0.0,0.0,0.0,0.000169,0.0,0.0,0.0,0.000169,0.38259,-0.00981,10.26126,0.006889,0.0,0.0,0.0,0.006889,0.0,0.0,0.0,0.006889
1421850641531299829,351737,1421850641531299829,fcu,-0.0109980473612,-0.00797915124105,-0.713753716864,0.700264955401,0.0,0.0,0.0,0.0,0.0,0.0,0.0,0.0,0.0,0.153676240638,0.347145988222,-0.0251327412287,0.000169,0.0,0.0,0.0,0.000169,0.0,0.0,0.0,0.000169,0.38259,-0.00981,10.26126,0.006889,0.0,0.0,0.0,0.006889,0.0,0.0,0.0,0.006889
1421850641539301872,351741,1421850641539301872,fcu,-0.0114897581036,-0.00785205905218,-0.713693931005,0.700319429599,0.0,0.0,0.0,0.0,0.0,0.0,0.0,0.0,0.0,-0.151843644924,-0.0264417381677,0.13325588839,0.000169,0.0,0.0,0.0,0.000169,0.0,0.0,0.0,0.000169,0.35316,0.05886,10.11411,0.006889,0.0,0.0,0.0,0.006889,0.0,0.0,0.0,0.006889
1421850641541301966,351742,1421850641541301966,fcu,-0.0111195810006,-0.00785554799249,-0.713693986422,0.70032530943,0.0,0.0,0.0,0.0,0.0,0.0,0.0,0.0,0.0,0.231692458202,0.226194671058,-0.0835140047079,0.000169,0.0,0.0,0.0,0.000169,0.0,0.0,0.0,0.000169,0.35316,0.05886,10.11411,0.006889,0.0,0.0,0.0,0.006889,0.0,0.0,0.0,0.006889
1421850641553305864,351748,1421850641553305864,fcu,-0.0113029253547,-0.00766870307669,-0.713696018542,0.700322374331,0.0,0.0,0.0,0.0,0.0,0.0,0.0,0.0,0.0,0.240855436775,0.0607374579694,-0.0976511716491,0.000169,0.0,0.0,0.0,0.000169,0.0,0.0,0.0,0.000169,0.3924,0.00981,10.32012,0.006889,0.0,0.0,0.0,0.006889,0.0,0.0,0.0,0.006889
1421850641556305885,351749,1421850641556305885,fcu,-0.0112413114431,-0.00760660334026,-0.713757815541,0.700261060788,0.0,0.0,0.0,0.0,0.0,0.0,0.0,0.0,0.0,0.0149225651046,0.0816814089933,-0.0492182849062,0.000169,0.0,0.0,0.0,0.000169,0.0,0.0,0.0,0.000169,0.47088,-0.10791,10.14354,0.006889,0.0,0.0,0.0,0.006889,0.0,0.0,0.0,0.006889
1421850641557306051,351750,1421850641557306051,fcu,-0.0113647037101,-0.00760542959213,-0.713757796898,0.700259100846,0.0,0.0,0.0,0.0,0.0,0.0,0.0,0.0,0.0,-0.0225147473507,-0.100530964915,-0.0185877565337,0.000169,0.0,0.0,0.0,0.000169,0.0,0.0,0.0,0.000169,0.47088,-0.10791,10.14354,0.006889,0.0,0.0,0.0,0.006889,0.0,0.0,0.0,0.006889
1421850641559308052,351751,1421850641559308052,fcu,-0.0115480307225,-0.00741856797937,-0.713759763534,0.700256101576,0.0,0.0,0.0,0.0,0.0,0.0,0.0,0.0,0.0,-0.41390483211,-0.0170169602069,0.0620464549084,0.000169,0.0,0.0,0.0,0.000169,0.0,0.0,0.0,0.000169,0.35316,0.10791,9.87867,0.006889,0.0,0.0,0.0,0.006889,0.0,0.0,0.0,0.006889
1421850641561307907,351752,1421850641561307907,fcu,-0.0118552798468,-0.0073549677848,-0.71369925834,0.700313305195,0.0,0.0,0.0,0.0,0.0,0.0,0.0,0.0,0.0,-0.164933614313,-0.118071523897,0.0272271363311,0.000169,0.0,0.0,0.0,0.000169,0.0,0.0,0.0,0.000169,0.35316,0.10791,9.87867,0.006889,0.0,0.0,0.0,0.006889,0.0,0.0,0.0,0.006889
1421850641563308001,351753,1421850641563308001,fcu,-0.0118552798468,-0.0073549677848,-0.71369925834,0.700313305195,0.0,0.0,0.0,0.0,0.0,0.0,0.0,0.0,0.0,-0.0439822971503,0.0397935069455,-0.059952059806,0.000169,0.0,0.0,0.0,0.000169,0.0,0.0,0.0,0.000169,0.42183,-0.03924,10.27107,0.006889,0.0,0.0,0.0,0.006889,0.0,0.0,0.0,0.006889
1421850641569309950,351756,1421850641569309950,fcu,-0.0116719378481,-0.00754181355953,-0.713697308356,0.700316384901,0.0,0.0,0.0,0.0,0.0,0.0,0.0,0.0,0.0,-0.0125663706144,-0.00733038285838,0.0479092879672,0.000169,0.0,0.0,0.0,0.000169,0.0,0.0,0.0,0.000169,0.46107,-0.01962,9.99639,0.006889,0.0,0.0,0.0,0.006889,0.0,0.0,0.0,0.006889
1421850641571310043,351757,1421850641571310043,fcu,-0.0118529537187,-0.00710816522691,-0.713701821405,0.700313281038,0.0,0.0,0.0,0.0,0.0,0.0,0.0,0.0,0.0,-0.27122416576,-0.0264417381677,0.0233001455141,0.000169,0.0,0.0,0.0,0.000169,0.0,0.0,0.0,0.000169,0.46107,-0.01962,9.99639,0.006889,0.0,0.0,0.0,0.006889,0.0,0.0,0.0,0.006889
1421850641577311993,351760,1421850641577311993,fcu,-0.0120415941874,-0.00741387304017,-0.713759685682,0.700247917234,0.0,0.0,0.0,0.0,0.0,0.0,0.0,0.0,0.0,0.254207205553,-0.119118721449,-0.0191113553093,0.000169,0.0,0.0,0.0,0.000169,0.0,0.0,0.0,0.000169,0.46107,-0.10791,10.17297,0.006889,0.0,0.0,0.0,0.006889,0.0,0.0,0.0,0.006889
1421850641579311848,351761,1421850641579311848,fcu,-0.0118559216437,-0.00735393318847,-0.713760369487,0.700251020519,0.0,0.0,0.0,0.0,0.0,0.0,0.0,0.0,0.0,0.0685914396034,0.221482282078,0.0657116463376,0.000169,0.0,0.0,0.0,0.000169,0.0,0.0,0.0,0.000169,0.46107,-0.10791,10.17297,0.006889,0.0,0.0,0.0,0.006889,0.0,0.0,0.0,0.006889
1421850641581313848,351762,1421850641581313848,fcu,-0.0119123003221,-0.00692352081806,-0.71364256096,0.700374512062,0.0,0.0,0.0,0.0,0.0,0.0,0.0,0.0,0.0,-0.241640834939,0.276460153516,0.115191730632,0.000169,0.0,0.0,0.0,0.000169,0.0,0.0,0.0,0.000169,0.46107,-0.10791,10.17297,0.006889,0.0,0.0,0.0,0.006889,0.0,0.0,0.0,0.006889
1421850641583313942,351763,1421850641583313942,fcu,-0.0119123003221,-0.00692352081806,-0.71364256096,0.700374512062,0.0,0.0,0.0,0.0,0.0,0.0,0.0,0.0,0.0,-0.377776516594,0.0926769832809,0.0157079632679,0.000169,0.0,0.0,0.0,0.000169,0.0,0.0,0.0,0.000169,0.43164,0.12753,9.98658,0.006889,0.0,0.0,0.0,0.006889,0.0,0.0,0.0,0.006889
1421850641586313963,351764,1421850641586313963,fcu,-0.0121614626529,-0.00704249578536,-0.713763510301,0.700245780738,0.0,0.0,0.0,0.0,0.0,0.0,0.0,0.0,0.0,-0.0900589894029,-0.0924151838931,-0.134303085941,0.000169,0.0,0.0,0.0,0.000169,0.0,0.0,0.0,0.000169,0.43164,0.12753,9.98658,0.006889,0.0,0.0,0.0,0.006889,0.0,0.0,0.0,0.006889
1421850641587316036,351765,1421850641587316036,fcu,-0.0122237444148,-0.00710360965067,-0.713762872932,0.700244728667,0.0,0.0,0.0,0.0,0.0,0.0,0.0,0.0,0.0,0.170693200845,-0.111002940427,-0.0376991118431,0.000169,0.0,0.0,0.0,0.000169,0.0,0.0,0.0,0.000169,0.43164,0.12753,9.98658,0.006889,0.0,0.0,0.0,0.006889,0.0,0.0,0.0,0.006889
1421850641589315891,351766,1421850641589315891,fcu,-0.0119158561951,-0.0071682446405,-0.713762290053,0.700249971038,0.0,0.0,0.0,0.0,0.0,0.0,0.0,0.0,0.0,0.184568568398,0.245306026368,-0.0316777259237,0.000169,0.0,0.0,0.0,0.000169,0.0,0.0,0.0,0.000169,0.43164,-0.10791,10.17297,0.006889,0.0,0.0,0.0,0.006889,0.0,0.0,0.0,0.006889
1421850641595317841,351769,1421850641595317841,fcu,-0.0122807485198,-0.00667218829467,-0.713706030375,0.700305909818,0.0,0.0,0.0,0.0,0.0,0.0,0.0,0.0,0.0,-0.066497044501,-0.195302343298,-0.132994089002,0.000169,0.0,0.0,0.0,0.000169,0.0,0.0,0.0,0.000169,0.43164,0.01962,10.05525,0.006889,0.0,0.0,0.0,0.006889,0.0,0.0,0.0,0.006889
