%time,field.header.seq,field.header.stamp,field.header.frame_id,field.orientation.x,field.orientation.y,field.orientation.z,field.orientation.w,field.orientation_covariance0,field.orientation_covariance1,field.orientation_covariance2,field.orientation_covariance3,field.orientation_covariance4,field.orientation_covariance5,field.orientation_covariance6,field.orientation_covariance7,field.orientation_covariance8,field.angular_velocity.x,field.angular_velocity.y,field.angular_velocity.z,field.angular_velocity_covariance0,field.angular_velocity_covariance1,field.angular_velocity_covariance2,field.angular_velocity_covariance3,field.angular_velocity_covariance4,field.angular_velocity_covariance5,field.angular_velocity_covariance6,field.angular_velocity_covariance7,field.angular_velocity_covariance8,field.linear_acceleration.x,field.linear_acceleration.y,field.linear_acceleration.z,field.linear_acceleration_covariance0,field.linear_acceleration_covariance1,field.linear_acceleration_covariance2,field.linear_acceleration_covariance3,field.linear_acceleration_covariance4,field.linear_acceleration_covariance5,field.linear_acceleration_covariance6,field.linear_acceleration_covariance7,field.linear_acceleration_covariance8
1421851136161511898,82972,1421851136161511898,fcu,-0.0226627581769,-0.00968473275212,-0.73375623815,0.678965675362,0.0,0.0,0.0,0.0,0.0,0.0,0.0,0.0,0.0,-0.115191730632,0.145036860841,-0.00733038285838,0.000169,0.0,0.0,0.0,0.000169,0.0,0.0,0.0,0.000169,0.51012,-0.21582,10.02582,0.006889,0.0,0.0,0.0,0.006889,0.0,0.0,0.0,0.006889
1421851136163513899,82973,1421851136163513899,fcu,-0.0227868629177,-0.00967798754018,-0.733815335632,0.678897745339,0.0,0.0,0.0,0.0,0.0,0.0,0.0,0.0,0.0,-0.0306305283725,-0.259966792085,-0.0594284610304,0.000169,0.0,0.0,0.0,0.000169,0.0,0.0,0.0,0.000169,0.51012,-0.21582,10.02582,0.006889,0.0,0.0,0.0,0.006889,0.0,0.0,0.0,0.006889
1421851136177517891,82980,1421851136177517891,fcu,-0.0230390039417,-0.00978974948438,-0.733872422392,0.678825922277,0.0,0.0,0.0,0.0,0.0,0.0,0.0,0.0,0.0,-0.0303687289847,-0.00994837673637,0.0646644487864,0.000169,0.0,0.0,0.0,0.000169,0.0,0.0,0.0,0.000169,0.41202,-0.0981,9.80019,0.006889,0.0,0.0,0.0,0.006889,0.0,0.0,0.0,0.006889
1421851136179517984,82981,1421851136179517984,fcu,-0.022974985044,-0.00973048516329,-0.733873426996,0.678827858053,0.0,0.0,0.0,0.0,0.0,0.0,0.0,0.0,0.0,0.0515744793964,0.0238237442897,0.0400553063333,0.000169,0.0,0.0,0.0,0.000169,0.0,0.0,0.0,0.000169,0.41202,-0.0981,9.80019,0.006889,0.0,0.0,0.0,0.006889,0.0,0.0,0.0,0.006889
1421851136183519840,82983,1421851136183519840,fcu,-0.0227924874741,-0.00979930587044,-0.733872726888,0.678833777039,0.0,0.0,0.0,0.0,0.0,0.0,0.0,0.0,0.0,-0.0753982236862,0.00314159265359,-0.0246091424531,0.000169,0.0,0.0,0.0,0.000169,0.0,0.0,0.0,0.000169,0.43164,-0.1962,9.97677,0.006889,0.0,0.0,0.0,0.006889,0.0,0.0,0.0,0.006889
1421851136185519934,82984,1421851136185519934,fcu,-0.0228525762847,-0.00973326912991,-0.733932815698,0.678767740299,0.0,0.0,0.0,0.0,0.0,0.0,0.0,0.0,0.0,-0.123307511653,-0.0235619449019,-0.0699004365424,0.000169,0.0,0.0,0.0,0.000169,0.0,0.0,0.0,0.000169,0.43164,-0.1962,9.96696,0.006889,0.0,0.0,0.0,0.006889,0.0,0.0,0.0,0.006889
1421851136187521935,82985,1421851136187521935,fcu,-0.0228525762847,-0.00973326912991,-0.733932815698,0.678767740299,0.0,0.0,0.0,0.0,0.0,0.0,0.0,0.0,0.0,-0.122260314102,0.0921533845053,0.01308996939,0.000169,0.0,0.0,0.0,0.000169,0.0,0.0,0.0,0.000169,0.43164,-0.1962,9.96696,0.006889,0.0,0.0,0.0,0.006889,0.0,0.0,0.0,0.006889
1421851136189522028,82986,1421851136189522028,fcu,-0.0227885516981,-0.00967401033495,-0.733933814464,0.678769660063,0.0,0.0,0.0,0.0,0.0,0.0,0.0,0.0,0.0,-0.0882263936883,0.140062672473,0.0646644487864,0.000169,0.0,0.0,0.0,0.000169,0.0,0.0,0.0,0.000169,0.40221,-0.12753,9.81981,0.006889,0.0,0.0,0.0,0.006889,0.0,0.0,0.0,0.006889
1421851136191521883,82987,1421851136191521883,fcu,-0.0226596680445,-0.00955746998995,-0.733876558273,0.678837529479,0.0,0.0,0.0,0.0,0.0,0.0,0.0,0.0,0.0,0.00523598775598,0.141371669412,0.0903207887907,0.000169,0.0,0.0,0.0,0.000169,0.0,0.0,0.0,0.000169,0.40221,-0.12753,9.81981,0.006889,0.0,0.0,0.0,0.006889,0.0,0.0,0.0,0.006889
1421851136193523884,82988,1421851136193523884,fcu,-0.0226004282084,-0.0096215127647,-0.733875721432,0.678839504323,0.0,0.0,0.0,0.0,0.0,0.0,0.0,0.0,0.0,0.0644026493986,-0.127758101246,-0.0358665161285,0.000169,0.0,0.0,0.0,0.000169,0.0,0.0,0.0,0.000169,0.40221,-0.12753,9.81981,0.006889,0.0,0.0,0.0,0.006889,0.0,0.0,0.0,0.006889
1421851136201525927,82992,1421851136201525927,fcu,-0.0225964768991,-0.00949623350987,-0.733936777226,0.678775388339,0.0,0.0,0.0,0.0,0.0,0.0,0.0,0.0,0.0,0.0696386371546,0.065188047562,0.0725184304204,0.000169,0.0,0.0,0.0,0.000169,0.0,0.0,0.0,0.000169,0.40221,-0.15696,9.87867,0.006889,0.0,0.0,0.0,0.006889,0.0,0.0,0.0,0.006889
1421851136203526020,82993,1421851136203526020,fcu,-0.0224732170428,-0.00950102253845,-0.733936927309,0.678779251169,0.0,0.0,0.0,0.0,0.0,0.0,0.0,0.0,0.0,0.160221225333,0.0109955742876,-0.0751364242984,0.000169,0.0,0.0,0.0,0.000169,0.0,0.0,0.0,0.000169,0.43164,-0.20601,9.9081,0.006889,0.0,0.0,0.0,0.006889,0.0,0.0,0.0,0.006889
1421851136215529919,82999,1421851136215529919,fcu,-0.0224700625497,-0.00937379364118,-0.734057182592,0.678651074535,0.0,0.0,0.0,0.0,0.0,0.0,0.0,0.0,0.0,0.0185877565337,0.0123045712266,-0.0672824426644,0.000169,0.0,0.0,0.0,0.000169,0.0,0.0,0.0,0.000169,0.41202,-0.25506,10.02582,0.006889,0.0,0.0,0.0,0.006889,0.0,0.0,0.0,0.006889
1421851136217531919,83000,1421851136217531919,fcu,-0.0224748749418,-0.00949710007745,-0.734055385459,0.678651144673,0.0,0.0,0.0,0.0,0.0,0.0,0.0,0.0,0.0,0.126449104307,-0.109693943488,0.00314159265359,0.000169,0.0,0.0,0.0,0.000169,0.0,0.0,0.0,0.000169,0.41202,-0.25506,10.02582,0.006889,0.0,0.0,0.0,0.006889,0.0,0.0,0.0,0.006889
1421851136225533962,83004,1421851136225533962,fcu,-0.0223971929961,-0.00906597698596,-0.734120877171,0.67858876465,0.0,0.0,0.0,0.0,0.0,0.0,0.0,0.0,0.0,-0.0191113553093,0.0183259571459,-0.06780604144,0.000169,0.0,0.0,0.0,0.000169,0.0,0.0,0.0,0.000169,0.41202,-0.22563,9.91791,0.006889,0.0,0.0,0.0,0.006889,0.0,0.0,0.0,0.006889
1421851136227533817,83005,1421851136227533817,fcu,-0.0224020161789,-0.0091892837742,-0.734119133846,0.67858883284,0.0,0.0,0.0,0.0,0.0,0.0,0.0,0.0,0.0,0.133517687778,-0.134564885329,-0.0471238898038,0.000169,0.0,0.0,0.0,0.000169,0.0,0.0,0.0,0.000169,0.41202,-0.22563,9.91791,0.006889,0.0,0.0,0.0,0.006889,0.0,0.0,0.0,0.006889
1421851136231535912,83007,1421851136231535912,fcu,-0.0224620303806,-0.00912325961216,-0.734179148048,0.678522808678,0.0,0.0,0.0,0.0,0.0,0.0,0.0,0.0,0.0,-0.0154461638801,0.0952949771589,0.0212057504117,0.000169,0.0,0.0,0.0,0.000169,0.0,0.0,0.0,0.000169,0.38259,-0.27468,9.98658,0.006889,0.0,0.0,0.0,0.006889,0.0,0.0,0.0,0.006889
1421851136233536005,83008,1421851136233536005,fcu,-0.0224571964314,-0.00899995309363,-0.734180880606,0.678522740757,0.0,0.0,0.0,0.0,0.0,0.0,0.0,0.0,0.0,-0.071733032257,-0.00890117918517,-0.0290597320457,0.000169,0.0,0.0,0.0,0.000169,0.0,0.0,0.0,0.000169,0.38259,-0.27468,9.98658,0.006889,0.0,0.0,0.0,0.006889,0.0,0.0,0.0,0.006889
1421851136235538006,83009,1421851136235538006,fcu,-0.0224571964314,-0.00899995309363,-0.734180880606,0.678522740757,0.0,0.0,0.0,0.0,0.0,0.0,0.0,0.0,0.0,0.0267035375555,-0.0874409955249,-0.0366519142919,0.000169,0.0,0.0,0.0,0.000169,0.0,0.0,0.0,0.000169,0.41202,-0.20601,9.91791,0.006889,0.0,0.0,0.0,0.006889,0.0,0.0,0.0,0.006889
1421851136237537861,83010,1421851136237537861,fcu,-0.0225804546085,-0.00899512103953,-0.734180729175,0.67851887798,0.0,0.0,0.0,0.0,0.0,0.0,0.0,0.0,0.0,-0.0680678408278,-0.0528834763354,-0.00628318530718,0.000169,0.0,0.0,0.0,0.000169,0.0,0.0,0.0,0.000169,0.41202,-0.20601,9.91791,0.006889,0.0,0.0,0.0,0.006889,0.0,0.0,0.0,0.006889
1421851136243540049,83013,1421851136243540049,fcu,-0.022329103621,-0.00888147835503,-0.734182742232,0.678526514945,0.0,0.0,0.0,0.0,0.0,0.0,0.0,0.0,0.0,-0.062570053684,0.120951317163,-0.00654498469498,0.000169,0.0,0.0,0.0,0.000169,0.0,0.0,0.0,0.000169,0.38259,-0.26487,9.99639,0.006889,0.0,0.0,0.0,0.006889,0.0,0.0,0.0,0.006889
1421851136245539904,83014,1421851136245539904,fcu,-0.0223883161447,-0.00881740879048,-0.734183514491,0.678524563779,0.0,0.0,0.0,0.0,0.0,0.0,0.0,0.0,0.0,-0.0324631240871,-0.000261799387799,-0.0314159265359,0.000169,0.0,0.0,0.0,0.000169,0.0,0.0,0.0,0.000169,0.41202,-0.20601,10.0062,0.006889,0.0,0.0,0.0,0.006889,0.0,0.0,0.0,0.006889
1421851136247541904,83015,1421851136247541904,fcu,-0.0225123436151,-0.00881061218414,-0.734242572788,0.67845663959,0.0,0.0,0.0,0.0,0.0,0.0,0.0,0.0,0.0,-0.119642320224,0.00706858347058,-0.0672824426644,0.000169,0.0,0.0,0.0,0.000169,0.0,0.0,0.0,0.000169,0.41202,-0.20601,10.0062,0.006889,0.0,0.0,0.0,0.006889,0.0,0.0,0.0,0.006889
1421851136249541998,83016,1421851136249541998,fcu,-0.0225123436151,-0.00881061218414,-0.734242572788,0.67845663959,0.0,0.0,0.0,0.0,0.0,0.0,0.0,0.0,0.0,-0.00549778714378,-0.0240855436775,-0.0437204977625,0.000169,0.0,0.0,0.0,0.000169,0.0,0.0,0.0,0.000169,0.3924,-0.20601,9.97677,0.006889,0.0,0.0,0.0,0.006889,0.0,0.0,0.0,0.006889
1421851136251541853,83017,1421851136251541853,fcu,-0.0224531370185,-0.00887468690253,-0.734241801121,0.678458601579,0.0,0.0,0.0,0.0,0.0,0.0,0.0,0.0,0.0,0.059952059806,-0.0316777259237,-0.0162315620435,0.000169,0.0,0.0,0.0,0.000169,0.0,0.0,0.0,0.000169,0.3924,-0.20601,9.97677,0.006889,0.0,0.0,0.0,0.006889,0.0,0.0,0.0,0.006889
1421851136253543854,83018,1421851136253543854,fcu,-0.0222602229821,-0.00869893362128,-0.734185343413,0.678528328476,0.0,0.0,0.0,0.0,0.0,0.0,0.0,0.0,0.0,0.00418879020479,0.2295980631,0.0623082542962,0.000169,0.0,0.0,0.0,0.000169,0.0,0.0,0.0,0.000169,0.40221,-0.23544,10.01601,0.006889,0.0,0.0,0.0,0.006889,0.0,0.0,0.0,0.006889
1421851136255543947,83019,1421851136255543947,fcu,-0.0222553889923,-0.00857562606739,-0.734187000647,0.678528263508,0.0,0.0,0.0,0.0,0.0,0.0,0.0,0.0,0.0,-0.0319395253115,0.0290597320457,-0.0214675497995,0.000169,0.0,0.0,0.0,0.000169,0.0,0.0,0.0,0.000169,0.40221,-0.23544,10.01601,0.006889,0.0,0.0,0.0,0.006889,0.0,0.0,0.0,0.006889
1421851136259546041,83021,1421851136259546041,fcu,-0.0223842407845,-0.00869214816729,-0.734244402884,0.678460425639,0.0,0.0,0.0,0.0,0.0,0.0,0.0,0.0,0.0,-0.128281700022,-0.12252211349,-0.0719948316448,0.000169,0.0,0.0,0.0,0.000169,0.0,0.0,0.0,0.000169,0.42183,-0.17658,9.95715,0.006889,0.0,0.0,0.0,0.006889,0.0,0.0,0.0,0.006889
1421851136261545897,83022,1421851136261545897,fcu,-0.0224482922853,-0.00875138020904,-0.734243490632,0.678458535198,0.0,0.0,0.0,0.0,0.0,0.0,0.0,0.0,0.0,0.0816814089933,-0.0835140047079,-0.0523598775598,0.000169,0.0,0.0,0.0,0.000169,0.0,0.0,0.0,0.000169,0.37278,-0.18639,9.91791,0.006889,0.0,0.0,0.0,0.006889,0.0,0.0,0.0,0.006889
1421851136267547846,83025,1421851136267547846,fcu,-0.0221920852614,-0.00851445164669,-0.73424710609,0.678466065963,0.0,0.0,0.0,0.0,0.0,0.0,0.0,0.0,0.0,-0.046862090416,0.00785398163397,0.0238237442897,0.000169,0.0,0.0,0.0,0.000169,0.0,0.0,0.0,0.000169,0.43164,-0.18639,9.96696,0.006889,0.0,0.0,0.0,0.006889,0.0,0.0,0.0,0.006889
1421851136269547939,83026,1421851136269547939,fcu,-0.0222561372721,-0.00857368388566,-0.734246210613,0.678464191022,0.0,0.0,0.0,0.0,0.0,0.0,0.0,0.0,0.0,-0.0439822971503,-0.136921079819,-0.0644026493986,0.000169,0.0,0.0,0.0,0.000169,0.0,0.0,0.0,0.000169,0.45126,-0.11772,9.87867,0.006889,0.0,0.0,0.0,0.006889,0.0,0.0,0.0,0.006889
1421851136275549889,83029,1421851136275549889,fcu,-0.0225771687274,-0.00886787389627,-0.734300852902,0.67839066156,0.0,0.0,0.0,0.0,0.0,0.0,0.0,0.0,0.0,0.0178023583703,-0.0424115008235,0.0659734457254,0.000169,0.0,0.0,0.0,0.000169,0.0,0.0,0.0,0.000169,0.38259,-0.14715,9.88848,0.006889,0.0,0.0,0.0,0.006889,0.0,0.0,0.0,0.006889
1421851136277551889,83030,1421851136277551889,fcu,-0.0223201891133,-0.00863291605935,-0.734245309544,0.678462310914,0.0,0.0,0.0,0.0,0.0,0.0,0.0,0.0,0.0,-0.0293215314335,0.248185819634,0.0840376034835,0.000169,0.0,0.0,0.0,0.000169,0.0,0.0,0.0,0.000169,0.47088,-0.17658,9.99639,0.006889,0.0,0.0,0.0,0.006889,0.0,0.0,0.0,0.006889
1421851136285553932,83034,1421851136285553932,fcu,-0.0227603934768,-0.00879695431249,-0.734360668043,0.678320711253,0.0,0.0,0.0,0.0,0.0,0.0,0.0,0.0,0.0,0.148440252882,-0.215460896159,-0.00942477796077,0.000169,0.0,0.0,0.0,0.000169,0.0,0.0,0.0,0.000169,0.3924,-0.16677,9.9081,0.006889,0.0,0.0,0.0,0.006889,0.0,0.0,0.0,0.006889
1421851136287554026,83035,1421851136287554026,fcu,-0.0225723132337,-0.00874456762603,-0.734302542407,0.678390595032,0.0,0.0,0.0,0.0,0.0,0.0,0.0,0.0,0.0,0.0327249234749,0.287717527191,0.0892735912395,0.000169,0.0,0.0,0.0,0.000169,0.0,0.0,0.0,0.000169,0.3924,-0.16677,9.9081,0.006889,0.0,0.0,0.0,0.006889,0.0,0.0,0.0,0.006889
1421851136289556026,83036,1421851136289556026,fcu,-0.0224442003966,-0.00862611462943,-0.734304362496,0.678394392101,0.0,0.0,0.0,0.0,0.0,0.0,0.0,0.0,0.0,-0.0416261026601,0.302640092296,0.0327249234749,0.000169,0.0,0.0,0.0,0.000169,0.0,0.0,0.0,0.000169,0.50031,-0.15696,9.98658,0.006889,0.0,0.0,0.0,0.006889,0.0,0.0,0.0,0.006889
1421851136291555882,83037,1421851136291555882,fcu,-0.0225674577284,-0.00862126106279,-0.73430421039,0.678390529351,0.0,0.0,0.0,0.0,0.0,0.0,0.0,0.0,0.0,-0.15577063574,-0.0486946861306,-0.057334065928,0.000169,0.0,0.0,0.0,0.000169,0.0,0.0,0.0,0.000169,0.50031,-0.15696,9.98658,0.006889,0.0,0.0,0.0,0.006889,0.0,0.0,0.0,0.006889
1421851136293555975,83038,1421851136293555975,fcu,-0.022938727456,-0.00860269709106,-0.734422137245,0.678250641511,0.0,0.0,0.0,0.0,0.0,0.0,0.0,0.0,0.0,-0.0539306738866,-0.25813419637,-0.139539073697,0.000169,0.0,0.0,0.0,0.000169,0.0,0.0,0.0,0.000169,0.40221,-0.0981,9.79038,0.006889,0.0,0.0,0.0,0.006889,0.0,0.0,0.0,0.006889
1421851136297557831,83040,1421851136297557831,fcu,-0.0229533584997,-0.00897261335006,-0.734417068766,0.678250841981,0.0,0.0,0.0,0.0,0.0,0.0,0.0,0.0,0.0,0.0706858347058,0.125925505531,0.0442440965381,0.000169,0.0,0.0,0.0,0.000169,0.0,0.0,0.0,0.000169,0.44145,-0.17658,10.03563,0.006889,0.0,0.0,0.0,0.006889,0.0,0.0,0.0,0.006889
1421851136299557924,83041,1421851136299557924,fcu,-0.0226371375844,-0.00880181859526,-0.734360821759,0.678324606259,0.0,0.0,0.0,0.0,0.0,0.0,0.0,0.0,0.0,0.0782780169519,0.262061187187,0.0725184304204,0.000169,0.0,0.0,0.0,0.000169,0.0,0.0,0.0,0.000169,0.44145,-0.17658,10.03563,0.006889,0.0,0.0,0.0,0.006889,0.0,0.0,0.0,0.006889
1421851136305559874,83044,1421851136305559874,fcu,-0.0231268017268,-0.00865501937667,-0.734480256578,0.678180650253,0.0,0.0,0.0,0.0,0.0,0.0,0.0,0.0,0.0,-0.219126087588,-0.351858377202,-0.162577419823,0.000169,0.0,0.0,0.0,0.000169,0.0,0.0,0.0,0.000169,0.33354,-0.12753,9.84924,0.006889,0.0,0.0,0.0,0.006889,0.0,0.0,0.0,0.006889
1421851136307561874,83045,1421851136307561874,fcu,-0.02320064739,-0.00896083883074,-0.734475940613,0.678178830389,0.0,0.0,0.0,0.0,0.0,0.0,0.0,0.0,0.0,0.192160750645,-0.0863937979737,-0.130114295736,0.000169,0.0,0.0,0.0,0.000169,0.0,0.0,0.0,0.000169,0.33354,-0.12753,9.84924,0.006889,0.0,0.0,0.0,0.006889,0.0,0.0,0.0,0.006889
1421851136311561823,83047,1421851136311561823,fcu,-0.0227619284883,-0.00879298174048,-0.734479046156,0.678192530807,0.0,0.0,0.0,0.0,0.0,0.0,0.0,0.0,0.0,0.163101018599,0.357617963734,0.0418879020479,0.000169,0.0,0.0,0.0,0.000169,0.0,0.0,0.0,0.000169,0.4905,-0.1962,9.94734,0.006889,0.0,0.0,0.0,0.006889,0.0,0.0,0.0,0.006889
1421851136313563824,83048,1421851136313563824,fcu,-0.0226288978735,-0.00855125696064,-0.734482536484,0.67819629355,0.0,0.0,0.0,0.0,0.0,0.0,0.0,0.0,0.0,0.0528834763354,-0.0578576647036,0.0164933614313,0.000169,0.0,0.0,0.0,0.000169,0.0,0.0,0.0,0.000169,0.4905,-0.1962,9.94734,0.006889,0.0,0.0,0.0,0.006889,0.0,0.0,0.0,0.006889
1421851136315563917,83049,1421851136315563917,fcu,-0.0228169749697,-0.00860358990709,-0.734540659145,0.678126377571,0.0,0.0,0.0,0.0,0.0,0.0,0.0,0.0,0.0,-0.114929931244,-0.353690972917,-0.0620464549084,0.000169,0.0,0.0,0.0,0.000169,0.0,0.0,0.0,0.000169,0.4905,-0.1962,9.94734,0.006889,0.0,0.0,0.0,0.006889,0.0,0.0,0.0,0.006889
1421851136317564011,83050,1421851136317564011,fcu,-0.0231324554729,-0.00877630586434,-0.734537757487,0.678116618868,0.0,0.0,0.0,0.0,0.0,0.0,0.0,0.0,0.0,0.118856922061,-0.139539073697,0.000261799387799,0.000169,0.0,0.0,0.0,0.000169,0.0,0.0,0.0,0.000169,0.31392,-0.11772,9.86886,0.006889,0.0,0.0,0.0,0.006889,0.0,0.0,0.0,0.006889
1421851136319566011,83051,1421851136319566011,fcu,-0.0230141014441,-0.00890450675351,-0.734536214545,0.678120645915,0.0,0.0,0.0,0.0,0.0,0.0,0.0,0.0,0.0,0.294262511886,-0.0824668071567,-0.00811578102177,0.000169,0.0,0.0,0.0,0.000169,0.0,0.0,0.0,0.000169,0.31392,-0.11772,9.86886,0.006889,0.0,0.0,0.0,0.006889,0.0,0.0,0.0,0.006889
1421851136321565866,83052,1421851136321565866,fcu,-0.0229549241666,-0.00896860709661,-0.734535434683,0.678122651692,0.0,0.0,0.0,0.0,0.0,0.0,0.0,0.0,0.0,0.201323729218,0.0848230016469,0.0183259571459,0.000169,0.0,0.0,0.0,0.000169,0.0,0.0,0.0,0.000169,0.31392,-0.11772,9.86886,0.006889,0.0,0.0,0.0,0.006889,0.0,0.0,0.0,0.006889
1421851136323565960,83053,1421851136323565960,fcu,-0.0224472101111,-0.00861827960015,-0.73454112207,0.6781380302,0.0,0.0,0.0,0.0,0.0,0.0,0.0,0.0,0.0,-0.107337748998,0.0808960108299,-0.0455530934771,0.000169,0.0,0.0,0.0,0.000169,0.0,0.0,0.0,0.000169,0.46107,-0.20601,10.02582,0.006889,0.0,0.0,0.0,0.006889,0.0,0.0,0.0,0.006889
1421851136325567961,83054,1421851136325567961,fcu,-0.0225704657413,-0.00861338300889,-0.734540968616,0.678134167502,0.0,0.0,0.0,0.0,0.0,0.0,0.0,0.0,0.0,-0.149487450433,-0.176714586764,-0.057334065928,0.000169,0.0,0.0,0.0,0.000169,0.0,0.0,0.0,0.000169,0.46107,-0.20601,10.02582,0.006889,0.0,0.0,0.0,0.006889,0.0,0.0,0.0,0.006889
1421851136327568054,83055,1421851136327568054,fcu,-0.022885949667,-0.00878609883018,-0.734538071232,0.678124516359,0.0,0.0,0.0,0.0,0.0,0.0,0.0,0.0,0.0,-0.0960803753223,-0.224362075344,-0.0602138591938,0.000169,0.0,0.0,0.0,0.000169,0.0,0.0,0.0,0.000169,0.37278,-0.07848,9.66285,0.006889,0.0,0.0,0.0,0.006889,0.0,0.0,0.0,0.006889
1421851136329567909,83056,1421851136329567909,fcu,-0.0230099691314,-0.00877919436839,-0.734597089174,0.678056475262,0.0,0.0,0.0,0.0,0.0,0.0,0.0,0.0,0.0,-0.0670206432766,-0.0596902604182,-0.0335103216383,0.000169,0.0,0.0,0.0,0.000169,0.0,0.0,0.0,0.000169,0.37278,-0.07848,9.66285,0.006889,0.0,0.0,0.0,0.006889,0.0,0.0,0.0,0.006889
1421851136331569910,83057,1421851136331569910,fcu,-0.0228275442909,-0.00884820729042,-0.734596476608,0.678062407898,0.0,0.0,0.0,0.0,0.0,0.0,0.0,0.0,0.0,0.257086998819,0.0984365698125,-0.0442440965381,0.000169,0.0,0.0,0.0,0.000169,0.0,0.0,0.0,0.000169,0.36297,-0.20601,10.05525,0.006889,0.0,0.0,0.0,0.006889,0.0,0.0,0.0,0.006889
1421851136333570004,83058,1421851136333570004,fcu,-0.022581035918,-0.00885802190417,-0.734596786759,0.678070197803,0.0,0.0,0.0,0.0,0.0,0.0,0.0,0.0,0.0,0.0848230016469,0.158650429006,0.0319395253115,0.000169,0.0,0.0,0.0,0.000169,0.0,0.0,0.0,0.000169,0.36297,-0.20601,10.05525,0.006889,0.0,0.0,0.0,0.006889,0.0,0.0,0.0,0.006889
1421851136335569859,83059,1421851136335569859,fcu,-0.0225761266222,-0.00873471776428,-0.734598476234,0.678070130537,0.0,0.0,0.0,0.0,0.0,0.0,0.0,0.0,0.0,-0.063879050623,0.0392699081699,-0.0575958653158,0.000169,0.0,0.0,0.0,0.000169,0.0,0.0,0.0,0.000169,0.36297,-0.20601,10.05525,0.006889,0.0,0.0,0.0,0.006889,0.0,0.0,0.0,0.006889
1421851136337571859,83060,1421851136337571859,fcu,-0.0227634628064,-0.00878900890061,-0.734597401894,0.678064329701,0.0,0.0,0.0,0.0,0.0,0.0,0.0,0.0,0.0,-0.13796827737,-0.268082573106,-0.0361283155163,0.000169,0.0,0.0,0.0,0.000169,0.0,0.0,0.0,0.000169,0.40221,-0.12753,9.74133,0.006889,0.0,0.0,0.0,0.006889,0.0,0.0,0.0,0.006889
1421851136343574047,83063,1421851136343574047,fcu,-0.0227099829821,-0.0089744366412,-0.734654090773,0.678002273647,0.0,0.0,0.0,0.0,0.0,0.0,0.0,0.0,0.0,0.156556033904,0.0361283155163,-0.0578576647036,0.000169,0.0,0.0,0.0,0.000169,0.0,0.0,0.0,0.000169,0.37278,-0.14715,9.87867,0.006889,0.0,0.0,0.0,0.006889,0.0,0.0,0.0,0.006889
1421851136345573902,83064,1421851136345573902,fcu,-0.0227099829821,-0.0089744366412,-0.734654090773,0.678002273647,0.0,0.0,0.0,0.0,0.0,0.0,0.0,0.0,0.0,0.134564885329,0.0942477796077,0.0141371669412,0.000169,0.0,0.0,0.0,0.000169,0.0,0.0,0.0,0.000169,0.37278,-0.14715,9.87867,0.006889,0.0,0.0,0.0,0.006889,0.0,0.0,0.0,0.006889
1421851136347573996,83065,1421851136347573996,fcu,-0.022646673913,-0.00891326774502,-0.734714190788,0.677940070857,0.0,0.0,0.0,0.0,0.0,0.0,0.0,0.0,0.0,-0.0829904059323,0.110479341651,-0.0319395253115,0.000169,0.0,0.0,0.0,0.000169,0.0,0.0,0.0,0.000169,0.44145,-0.16677,9.91791,0.006889,0.0,0.0,0.0,0.006889,0.0,0.0,0.0,0.006889
1421851136349575996,83066,1421851136349575996,fcu,-0.0228290882467,-0.00884422299759,-0.734714809634,0.6779341863,0.0,0.0,0.0,0.0,0.0,0.0,0.0,0.0,0.0,-0.18195057452,-0.258919594533,-0.0240855436775,0.000169,0.0,0.0,0.0,0.000169,0.0,0.0,0.0,0.000169,0.44145,-0.16677,9.91791,0.006889,0.0,0.0,0.0,0.006889,0.0,0.0,0.0,0.006889
1421851136351575851,83067,1421851136351575851,fcu,-0.0231988430949,-0.00882943674683,-0.734714335916,0.677922340188,0.0,0.0,0.0,0.0,0.0,0.0,0.0,0.0,0.0,-0.125401906756,-0.053407075111,0.001308996939,0.000169,0.0,0.0,0.0,0.000169,0.0,0.0,0.0,0.000169,0.44145,-0.16677,9.91791,0.006889,0.0,0.0,0.0,0.006889,0.0,0.0,0.0,0.006889
1421851136354575872,83068,1421851136354575872,fcu,-0.0229629949551,-0.00908389602342,-0.73477036689,0.67786627858,0.0,0.0,0.0,0.0,0.0,0.0,0.0,0.0,0.0,0.244520628204,-0.0659734457254,-0.0942477796077,0.000169,0.0,0.0,0.0,0.000169,0.0,0.0,0.0,0.000169,0.37278,-0.12753,10.01601,0.006889,0.0,0.0,0.0,0.006889,0.0,0.0,0.0,0.006889
1421851136355577946,83069,1421851136355577946,fcu,-0.0229038398755,-0.00914801679949,-0.734769571373,0.677868279899,0.0,0.0,0.0,0.0,0.0,0.0,0.0,0.0,0.0,0.177499984928,0.0123045712266,-0.00942477796077,0.000169,0.0,0.0,0.0,0.000169,0.0,0.0,0.0,0.000169,0.37278,-0.12753,10.01601,0.006889,0.0,0.0,0.0,0.006889,0.0,0.0,0.0,0.006889
1421851136357578039,83070,1421851136357578039,fcu,-0.0227805876592,-0.00915295634677,-0.73476972833,0.677872196322,0.0,0.0,0.0,0.0,0.0,0.0,0.0,0.0,0.0,0.065188047562,0.176714586764,0.0251327412287,0.000169,0.0,0.0,0.0,0.000169,0.0,0.0,0.0,0.000169,0.45126,-0.15696,9.83943,0.006889,0.0,0.0,0.0,0.006889,0.0,0.0,0.0,0.006889
1421851136359577894,83071,1421851136359577894,fcu,-0.022839743081,-0.00908883555698,-0.734770524278,0.677870205759,0.0,0.0,0.0,0.0,0.0,0.0,0.0,0.0,0.0,-0.152890842475,-0.127758101246,-0.0303687289847,0.000169,0.0,0.0,0.0,0.000169,0.0,0.0,0.0,0.000169,0.45126,-0.15696,9.83943,0.006889,0.0,0.0,0.0,0.006889,0.0,0.0,0.0,0.006889
1421851136361579895,83072,1421851136361579895,fcu,-0.0230813045892,-0.00895565426424,-0.734771941138,0.677862260457,0.0,0.0,0.0,0.0,0.0,0.0,0.0,0.0,0.0,-0.267820773719,-0.0960803753223,0.0206821516361,0.000169,0.0,0.0,0.0,0.000169,0.0,0.0,0.0,0.000169,0.45126,-0.15696,9.83943,0.006889,0.0,0.0,0.0,0.006889,0.0,0.0,0.0,0.006889
1421851136363579988,83073,1421851136363579988,fcu,-0.0231461873062,-0.00901281583442,-0.734830149803,0.677796189207,0.0,0.0,0.0,0.0,0.0,0.0,0.0,0.0,0.0,0.171478599008,-0.0217293491873,-0.128543499409,0.000169,0.0,0.0,0.0,0.000169,0.0,0.0,0.0,0.000169,0.36297,-0.02943,9.89829,0.006889,0.0,0.0,0.0,0.006889,0.0,0.0,0.0,0.006889
1421851136365579844,83074,1421851136365579844,fcu,-0.0230870383423,-0.0090769418278,-0.734829360489,0.677798206512,0.0,0.0,0.0,0.0,0.0,0.0,0.0,0.0,0.0,0.275412955965,-0.0764454212374,-0.0853466004225,0.000169,0.0,0.0,0.0,0.000169,0.0,0.0,0.0,0.000169,0.36297,-0.02943,9.89829,0.006889,0.0,0.0,0.0,0.006889,0.0,0.0,0.0,0.006889
1421851136367581844,83075,1421851136367581844,fcu,-0.0229046381033,-0.00914601802758,-0.734828723742,0.677804156576,0.0,0.0,0.0,0.0,0.0,0.0,0.0,0.0,0.0,0.0903207887907,0.18195057452,0.00785398163397,0.000169,0.0,0.0,0.0,0.000169,0.0,0.0,0.0,0.000169,0.46107,-0.21582,10.06506,0.006889,0.0,0.0,0.0,0.006889,0.0,0.0,0.0,0.006889
1421851136369581938,83076,1421851136369581938,fcu,-0.0228454884451,-0.00921014389601,-0.734827922803,0.677806152802,0.0,0.0,0.0,0.0,0.0,0.0,0.0,0.0,0.0,0.0505272818452,0.122783912878,-0.00497418836818,0.000169,0.0,0.0,0.0,0.000169,0.0,0.0,0.0,0.000169,0.46107,-0.21582,10.06506,0.006889,0.0,0.0,0.0,0.006889,0.0,0.0,0.0,0.006889
1421851136371582031,83077,1421851136371582031,fcu,-0.0229629949551,-0.00908389602342,-0.73477036689,0.67786627858,0.0,0.0,0.0,0.0,0.0,0.0,0.0,0.0,0.0,-0.188495559215,-0.0827286065445,0.0413643032723,0.000169,0.0,0.0,0.0,0.000169,0.0,0.0,0.0,0.000169,0.41202,-0.01962,9.75114,0.006889,0.0,0.0,0.0,0.006889,0.0,0.0,0.0,0.006889
1421851136373584032,83078,1421851136373584032,fcu,-0.0231404591428,-0.0088915332821,-0.734772719868,0.677860243652,0.0,0.0,0.0,0.0,0.0,0.0,0.0,0.0,0.0,-0.13796827737,-0.00602138591938,-0.046862090416,0.000169,0.0,0.0,0.0,0.000169,0.0,0.0,0.0,0.000169,0.41202,-0.01962,9.75114,0.006889,0.0,0.0,0.0,0.006889,0.0,0.0,0.0,0.006889
1421851136375583887,83079,1421851136375583887,fcu,-0.0230820860296,-0.00895364000633,-0.734831092981,0.677798136928,0.0,0.0,0.0,0.0,0.0,0.0,0.0,0.0,0.0,-0.0138753675534,-0.0358665161285,-0.124092909817,0.000169,0.0,0.0,0.0,0.000169,0.0,0.0,0.0,0.000169,0.41202,-0.01962,9.75114,0.006889,0.0,0.0,0.0,0.006889,0.0,0.0,0.0,0.006889
1421851136377583981,83080,1421851136377583981,fcu,-0.0230919906428,-0.00920024334502,-0.734827606476,0.677798276961,0.0,0.0,0.0,0.0,0.0,0.0,0.0,0.0,0.0,0.261275789024,-0.149749249821,-0.0596902604182,0.000169,0.0,0.0,0.0,0.000169,0.0,0.0,0.0,0.000169,0.40221,-0.16677,10.09449,0.006889,0.0,0.0,0.0,0.006889,0.0,0.0,0.0,0.006889
1421851136415597916,83099,1421851136415597916,fcu,-0.0232068975813,-0.00894463954093,-0.734949219728,0.677665904225,0.0,0.0,0.0,0.0,0.0,0.0,0.0,0.0,0.0,0.0225147473507,0.191113553093,0.0911061869541,0.000169,0.0,0.0,0.0,0.000169,0.0,0.0,0.0,0.000169,0.44145,-0.28449,10.01601,0.006889,0.0,0.0,0.0,0.006889,0.0,0.0,0.0,0.006889
1421851136417598009,83100,1421851136417598009,fcu,-0.0233152245141,-0.0085697631702,-0.734954127028,0.677661708104,0.0,0.0,0.0,0.0,0.0,0.0,0.0,0.0,0.0,-0.180379778194,-0.141895268187,-0.0772308194007,0.000169,0.0,0.0,0.0,0.000169,0.0,0.0,0.0,0.000169,0.46107,-0.05886,9.81981,0.006889,0.0,0.0,0.0,0.006889,0.0,0.0,0.0,0.006889
1421851136421599865,83102,1421851136421599865,fcu,-0.0236964493262,-0.00879731591014,-0.735068542399,0.677521456116,0.0,0.0,0.0,0.0,0.0,0.0,0.0,0.0,0.0,0.0466002910282,-0.193469747584,-0.0966039740979,0.000169,0.0,0.0,0.0,0.000169,0.0,0.0,0.0,0.000169,0.36297,-0.18639,9.93753,0.006889,0.0,0.0,0.0,0.006889,0.0,0.0,0.0,0.006889
1421851136423599958,83103,1421851136423599958,fcu,-0.0233958272291,-0.00899474928622,-0.7350663771,0.677531660522,0.0,0.0,0.0,0.0,0.0,0.0,0.0,0.0,0.0,0.0712094334814,0.237190245346,0.0683296402156,0.000169,0.0,0.0,0.0,0.000169,0.0,0.0,0.0,0.000169,0.36297,-0.18639,9.93753,0.006889,0.0,0.0,0.0,0.006889,0.0,0.0,0.0,0.006889
1421851136425600052,83104,1421851136425600052,fcu,-0.0233309261292,-0.00893763185055,-0.735008193067,0.67759777357,0.0,0.0,0.0,0.0,0.0,0.0,0.0,0.0,0.0,0.0405789051089,0.122260314102,0.144513262065,0.000169,0.0,0.0,0.0,0.000169,0.0,0.0,0.0,0.000169,0.45126,-0.27468,9.95715,0.006889,0.0,0.0,0.0,0.006889,0.0,0.0,0.0,0.006889
1421851136428601980,83105,1421851136428601980,fcu,-0.0231378122968,-0.00876217341483,-0.734951858282,0.677667788792,0.0,0.0,0.0,0.0,0.0,0.0,0.0,0.0,0.0,-0.0814196096055,0.128281700022,-0.0219911485751,0.000169,0.0,0.0,0.0,0.000169,0.0,0.0,0.0,0.000169,0.45126,-0.27468,9.95715,0.006889,0.0,0.0,0.0,0.006889,0.0,0.0,0.0,0.006889
1421851136433604002,83108,1421851136433604002,fcu,-0.0234066242808,-0.00923930626921,-0.735121992129,0.677467653727,0.0,0.0,0.0,0.0,0.0,0.0,0.0,0.0,0.0,0.137444678595,-0.0900589894029,-0.0138753675534,0.000169,0.0,0.0,0.0,0.000169,0.0,0.0,0.0,0.000169,0.33354,-0.22563,9.92772,0.006889,0.0,0.0,0.0,0.006889,0.0,0.0,0.0,0.006889
1421851136435603857,83109,1421851136435603857,fcu,-0.0234008225758,-0.00911804921984,-0.735064633873,0.677531731147,0.0,0.0,0.0,0.0,0.0,0.0,0.0,0.0,0.0,-0.0426733002113,0.148963851658,0.0439822971503,0.000169,0.0,0.0,0.0,0.000169,0.0,0.0,0.0,0.000169,0.33354,-0.22563,9.92772,0.006889,0.0,0.0,0.0,0.006889,0.0,0.0,0.0,0.006889
1421851136437603951,83110,1421851136437603951,fcu,-0.0231427861478,-0.00888547481942,-0.734950158082,0.677667857376,0.0,0.0,0.0,0.0,0.0,0.0,0.0,0.0,0.0,-0.214413698608,0.300283897806,0.112573736754,0.000169,0.0,0.0,0.0,0.000169,0.0,0.0,0.0,0.000169,0.47088,-0.24525,10.0062,0.006889,0.0,0.0,0.0,0.006889,0.0,0.0,0.0,0.006889
1421851136439605951,83111,1421851136439605951,fcu,-0.0231969498793,-0.0086980367327,-0.734952620128,0.677665767057,0.0,0.0,0.0,0.0,0.0,0.0,0.0,0.0,0.0,-0.279078147394,0.207606914525,0.0125663706144,0.000169,0.0,0.0,0.0,0.000169,0.0,0.0,0.0,0.000169,0.47088,-0.24525,10.0062,0.006889,0.0,0.0,0.0,0.006889,0.0,0.0,0.0,0.006889
1421851136441606045,83112,1421851136441606045,fcu,-0.0234484200448,-0.00881139487931,-0.734950607781,0.677657830354,0.0,0.0,0.0,0.0,0.0,0.0,0.0,0.0,0.0,-0.0575958653158,-0.251851011063,-0.0683296402156,0.000169,0.0,0.0,0.0,0.000169,0.0,0.0,0.0,0.000169,0.38259,-0.07848,9.87867,0.006889,0.0,0.0,0.0,0.006889,0.0,0.0,0.0,0.006889
1421851136443605900,83113,1421851136443605900,fcu,-0.0235839840937,-0.00904685146729,-0.735124385782,0.677461502671,0.0,0.0,0.0,0.0,0.0,0.0,0.0,0.0,0.0,0.293738913111,-0.242426233102,-0.16886060513,0.000169,0.0,0.0,0.0,0.000169,0.0,0.0,0.0,0.000169,0.38259,-0.07848,9.87867,0.006889,0.0,0.0,0.0,0.006889,0.0,0.0,0.0,0.006889
1421851136445607901,83114,1421851136445607901,fcu,-0.0235298704293,-0.00923430232857,-0.735121828755,0.677463629833,0.0,0.0,0.0,0.0,0.0,0.0,0.0,0.0,0.0,0.36992253496,-0.156556033904,-0.0837758040957,0.000169,0.0,0.0,0.0,0.000169,0.0,0.0,0.0,0.000169,0.37278,-0.28449,9.96696,0.006889,0.0,0.0,0.0,0.006889,0.0,0.0,0.0,0.006889
1421851136447607994,83115,1421851136447607994,fcu,-0.0232767790664,-0.0091250737505,-0.735005667079,0.67759987747,0.0,0.0,0.0,0.0,0.0,0.0,0.0,0.0,0.0,0.0837758040957,0.227765467385,0.176976386152,0.000169,0.0,0.0,0.0,0.000169,0.0,0.0,0.0,0.000169,0.37278,-0.28449,9.96696,0.006889,0.0,0.0,0.0,0.006889,0.0,0.0,0.0,0.006889
1421851136449607849,83116,1421851136449607849,fcu,-0.023084429296,-0.00894759682357,-0.735008514934,0.677605735372,0.0,0.0,0.0,0.0,0.0,0.0,0.0,0.0,0.0,-0.0997455667515,0.324893040259,0.154985237577,0.000169,0.0,0.0,0.0,0.000169,0.0,0.0,0.0,0.000169,0.4905,-0.15696,10.04544,0.006889,0.0,0.0,0.0,0.006889,0.0,0.0,0.0,0.006889
1421851136451609850,83117,1421851136451609850,fcu,-0.0231969498793,-0.0086980367327,-0.734952620128,0.677665767057,0.0,0.0,0.0,0.0,0.0,0.0,0.0,0.0,0.0,-0.244520628204,0.106552350834,-0.0311541271481,0.000169,0.0,0.0,0.0,0.000169,0.0,0.0,0.0,0.000169,0.4905,-0.15696,10.04544,0.006889,0.0,0.0,0.0,0.006889,0.0,0.0,0.0,0.006889
1421851136453609943,83118,1421851136453609943,fcu,-0.0235739718558,-0.00880025186904,-0.735127829186,0.677461362865,0.0,0.0,0.0,0.0,0.0,0.0,0.0,0.0,0.0,-0.0945095789955,-0.232739655753,-0.193731546971,0.000169,0.0,0.0,0.0,0.000169,0.0,0.0,0.0,0.000169,0.4905,-0.15696,10.04544,0.006889,0.0,0.0,0.0,0.006889,0.0,0.0,0.0,0.006889
1421851136467613935,83125,1421851136467613935,fcu,-0.023471561839,-0.00929640553013,-0.735180137345,0.677401526632,0.0,0.0,0.0,0.0,0.0,0.0,0.0,0.0,0.0,0.366780942307,-0.0230383461263,0.0450294947015,0.000169,0.0,0.0,0.0,0.000169,0.0,0.0,0.0,0.000169,0.32373,-0.21582,9.87867,0.006889,0.0,0.0,0.0,0.006889,0.0,0.0,0.0,0.006889
1421851136469615936,83126,1421851136469615936,fcu,-0.0233424978981,-0.00918015869316,-0.73512295855,0.677469621674,0.0,0.0,0.0,0.0,0.0,0.0,0.0,0.0,0.0,0.139800873085,0.230907060039,0.119118721449,0.000169,0.0,0.0,0.0,0.000169,0.0,0.0,0.0,0.000169,0.32373,-0.21582,9.87867,0.006889,0.0,0.0,0.0,0.006889,0.0,0.0,0.0,0.006889
1421851136471616030,83127,1421851136471616030,fcu,-0.0232134537148,-0.00906388912227,-0.735065751078,0.677537691256,0.0,0.0,0.0,0.0,0.0,0.0,0.0,0.0,0.0,-0.0180641577581,0.319133453727,0.151843644924,0.000169,0.0,0.0,0.0,0.000169,0.0,0.0,0.0,0.000169,0.51012,-0.17658,10.08468,0.006889,0.0,0.0,0.0,0.006889,0.0,0.0,0.0,0.006889
1421851136473615885,83128,1421851136473615885,fcu,-0.0232084583619,-0.008940589037,-0.735067483546,0.677537621067,0.0,0.0,0.0,0.0,0.0,0.0,0.0,0.0,0.0,-0.144513262065,-0.169646003294,-0.0952949771589,0.000169,0.0,0.0,0.0,0.000169,0.0,0.0,0.0,0.000169,0.51012,-0.17658,10.08468,0.006889,0.0,0.0,0.0,0.006889,0.0,0.0,0.0,0.006889
1421851136481619835,83132,1421851136481619835,fcu,-0.0235457266706,-0.00960214331182,-0.735175522486,0.677399696439,0.0,0.0,0.0,0.0,0.0,0.0,0.0,0.0,0.0,0.0185877565337,0.187448361664,0.108384946549,0.000169,0.0,0.0,0.0,0.000169,0.0,0.0,0.0,0.000169,0.43164,-0.27468,10.01601,0.006889,0.0,0.0,0.0,0.006889,0.0,0.0,0.0,0.006889
1421851136483619928,83133,1421851136483619928,fcu,-0.0233424978981,-0.00918015869316,-0.73512295855,0.677469621674,0.0,0.0,0.0,0.0,0.0,0.0,0.0,0.0,0.0,-0.257086998819,0.24268803249,-0.0261799387799,0.000169,0.0,0.0,0.0,0.000169,0.0,0.0,0.0,0.000169,0.43164,-0.27468,10.01601,0.006889,0.0,0.0,0.0,0.006889,0.0,0.0,0.0,0.006889
1421851136487622023,83135,1421851136487622023,fcu,-0.0240412101967,-0.00957579117048,-0.73535217219,0.677190894277,0.0,0.0,0.0,0.0,0.0,0.0,0.0,0.0,0.0,-0.0442440965381,-0.517315590291,-0.225671072283,0.000169,0.0,0.0,0.0,0.000169,0.0,0.0,0.0,0.000169,0.51012,-0.11772,10.01601,0.006889,0.0,0.0,0.0,0.006889,0.0,0.0,0.0,0.006889
1421851136489621878,83136,1421851136489621878,fcu,-0.024047105592,-0.00969698887564,-0.735409414656,0.677126796069,0.0,0.0,0.0,0.0,0.0,0.0,0.0,0.0,0.0,0.201585528605,-0.337983009649,-0.150534647985,0.000169,0.0,0.0,0.0,0.000169,0.0,0.0,0.0,0.000169,0.35316,-0.14715,9.80019,0.006889,0.0,0.0,0.0,0.006889,0.0,0.0,0.0,0.006889
1421851136493623972,83138,1421851136493623972,fcu,-0.0236706463322,-0.00959299748358,-0.735293574532,0.677267328427,0.0,0.0,0.0,0.0,0.0,0.0,0.0,0.0,0.0,-0.0997455667515,0.297927703315,0.150796447372,0.000169,0.0,0.0,0.0,0.000169,0.0,0.0,0.0,0.000169,0.51012,-0.22563,10.15335,0.006889,0.0,0.0,0.0,0.006889,0.0,0.0,0.0,0.006889
1421851136495623827,83139,1421851136495623827,fcu,-0.0236014668477,-0.0094105700464,-0.735296393147,0.677269242,0.0,0.0,0.0,0.0,0.0,0.0,0.0,0.0,0.0,-0.232477856366,0.267820773719,0.0722566310326,0.000169,0.0,0.0,0.0,0.000169,0.0,0.0,0.0,0.000169,0.51012,-0.22563,10.15335,0.006889,0.0,0.0,0.0,0.006889,0.0,0.0,0.0,0.006889
1421851136497623920,83140,1421851136497623920,fcu,-0.0240361611018,-0.00945249467526,-0.735354001464,0.677190819367,0.0,0.0,0.0,0.0,0.0,0.0,0.0,0.0,0.0,-0.0924151838931,-0.428827397215,-0.171216799621,0.000169,0.0,0.0,0.0,0.000169,0.0,0.0,0.0,0.000169,0.51993,-0.03924,9.84924,0.006889,0.0,0.0,0.0,0.006889,0.0,0.0,0.0,0.006889
1421851136503625870,83143,1421851136503625870,fcu,-0.0239289243059,-0.00982534188366,-0.735407711011,0.677130982767,0.0,0.0,0.0,0.0,0.0,0.0,0.0,0.0,0.0,0.00942477796077,0.311017672705,0.140848070636,0.000169,0.0,0.0,0.0,0.000169,0.0,0.0,0.0,0.000169,0.40221,-0.17658,9.89829,0.006889,0.0,0.0,0.0,0.006889,0.0,0.0,0.0,0.006889
1421851136505627871,83144,1421851136505627871,fcu,-0.0238588721382,-0.00964500957653,-0.735351501607,0.677197088812,0.0,0.0,0.0,0.0,0.0,0.0,0.0,0.0,0.0,-0.0753982236862,0.312588469032,0.110479341651,0.000169,0.0,0.0,0.0,0.000169,0.0,0.0,0.0,0.000169,0.56898,-0.14715,10.03563,0.006889,0.0,0.0,0.0,0.006889,0.0,0.0,0.0,0.006889
1421851136507627964,83145,1421851136507627964,fcu,-0.0239787255694,-0.00951248144944,-0.735471355038,0.677064560685,0.0,0.0,0.0,0.0,0.0,0.0,0.0,0.0,0.0,-0.167551608191,-0.161006623496,-0.181165176357,0.000169,0.0,0.0,0.0,0.000169,0.0,0.0,0.0,0.000169,0.56898,-0.14715,10.03563,0.006889,0.0,0.0,0.0,0.006889,0.0,0.0,0.0,0.006889
1421851136509627819,83146,1421851136509627819,fcu,-0.0241070364902,-0.0096307085615,-0.735469345554,0.677060515755,0.0,0.0,0.0,0.0,0.0,0.0,0.0,0.0,0.0,-0.116762526958,-0.393484479862,-0.159174027782,0.000169,0.0,0.0,0.0,0.000169,0.0,0.0,0.0,0.000169,0.56898,-0.14715,10.03563,0.006889,0.0,0.0,0.0,0.006889,0.0,0.0,0.0,0.006889
1421851136511629820,83147,1421851136511629820,fcu,-0.0244877548004,-0.00985995672918,-0.735524168059,0.676983994877,0.0,0.0,0.0,0.0,0.0,0.0,0.0,0.0,0.0,-0.0937241808321,-0.359450559448,-0.00575958653158,0.000169,0.0,0.0,0.0,0.000169,0.0,0.0,0.0,0.000169,0.38259,-0.0981,9.78057,0.006889,0.0,0.0,0.0,0.006889,0.0,0.0,0.0,0.006889
1421851136513629913,83148,1421851136513629913,fcu,-0.024374679744,-0.0101116234574,-0.735520509879,0.676988337865,0.0,0.0,0.0,0.0,0.0,0.0,0.0,0.0,0.0,0.375420322104,0.108908545324,-0.0185877565337,0.000169,0.0,0.0,0.0,0.000169,0.0,0.0,0.0,0.000169,0.38259,-0.0981,9.78057,0.006889,0.0,0.0,0.0,0.006889,0.0,0.0,0.0,0.006889
1421851136515630007,83149,1421851136515630007,fcu,-0.0239990079194,-0.0100056613043,-0.73546386584,0.677064868683,0.0,0.0,0.0,0.0,0.0,0.0,0.0,0.0,0.0,0.0947713783833,0.307876080052,0.103410758181,0.000169,0.0,0.0,0.0,0.000169,0.0,0.0,0.0,0.000169,0.38259,-0.0981,9.78057,0.006889,0.0,0.0,0.0,0.006889,0.0,0.0,0.0,0.006889
1421851136518631935,83150,1421851136518631935,fcu,-0.0240530223099,-0.00981818529895,-0.735466630016,0.677062693912,0.0,0.0,0.0,0.0,0.0,0.0,0.0,0.0,0.0,-0.165457213089,-0.065188047562,-0.104457955732,0.000169,0.0,0.0,0.0,0.000169,0.0,0.0,0.0,0.000169,0.51012,-0.21582,10.16316,0.006889,0.0,0.0,0.0,0.006889,0.0,0.0,0.0,0.006889
1421851136519631863,83151,1421851136519631863,fcu,-0.0241821998605,-0.009934301354,-0.735523648005,0.676994456471,0.0,0.0,0.0,0.0,0.0,0.0,0.0,0.0,0.0,-0.187710161052,-0.29976029903,-0.175929188601,0.000169,0.0,0.0,0.0,0.000169,0.0,0.0,0.0,0.000169,0.51012,-0.21582,10.16316,0.006889,0.0,0.0,0.0,0.006889,0.0,0.0,0.0,0.006889
1421851136521631956,83152,1421851136521631956,fcu,-0.0246220358291,-0.0100993168379,-0.735579238874,0.676915757305,0.0,0.0,0.0,0.0,0.0,0.0,0.0,0.0,0.0,-0.16179202166,-0.425947603949,-0.111526539202,0.000169,0.0,0.0,0.0,0.000169,0.0,0.0,0.0,0.000169,0.43164,-0.01962,9.67266,0.006889,0.0,0.0,0.0,0.006889,0.0,0.0,0.0,0.006889
1421851136523633957,83153,1421851136523633957,fcu,-0.0246912918956,-0.0102817112255,-0.735576222201,0.676913766924,0.0,0.0,0.0,0.0,0.0,0.0,0.0,0.0,0.0,0.250803813512,-0.168598805743,0.0115191730632,0.000169,0.0,0.0,0.0,0.000169,0.0,0.0,0.0,0.000169,0.43164,-0.01962,9.67266,0.006889,0.0,0.0,0.0,0.006889,0.0,0.0,0.0,0.006889
1421851136525634050,83154,1421851136525634050,fcu,-0.0243908381894,-0.0104793740351,-0.735573678095,0.676924392991,0.0,0.0,0.0,0.0,0.0,0.0,0.0,0.0,0.0,0.229074464324,0.130114295736,-0.0285361332701,0.000169,0.0,0.0,0.0,0.000169,0.0,0.0,0.0,0.000169,0.46107,-0.22563,10.04544,0.006889,0.0,0.0,0.0,0.006889,0.0,0.0,0.0,0.006889
1421851136527633905,83155,1421851136527633905,fcu,-0.0243206825658,-0.0102991028778,-0.735517666305,0.67699054309,0.0,0.0,0.0,0.0,0.0,0.0,0.0,0.0,0.0,-0.0740892267472,0.214413698608,0.106290551446,0.000169,0.0,0.0,0.0,0.000169,0.0,0.0,0.0,0.000169,0.46107,-0.22563,10.04544,0.006889,0.0,0.0,0.0,0.006889,0.0,0.0,0.0,0.006889
1421851136529635906,83156,1421851136529635906,fcu,-0.0243156012738,-0.0101758096919,-0.735519624673,0.676990462379,0.0,0.0,0.0,0.0,0.0,0.0,0.0,0.0,0.0,-0.163362817987,-0.0109955742876,-0.0505272818452,0.000169,0.0,0.0,0.0,0.000169,0.0,0.0,0.0,0.000169,0.46107,-0.22563,10.04544,0.006889,0.0,0.0,0.0,0.006889,0.0,0.0,0.0,0.006889
1421851136531636000,83157,1421851136531636000,fcu,-0.0245689533423,-0.0102846569331,-0.735635465818,0.676853790559,0.0,0.0,0.0,0.0,0.0,0.0,0.0,0.0,0.0,-0.0531452757232,-0.289550122906,-0.147654854719,0.000169,0.0,0.0,0.0,0.000169,0.0,0.0,0.0,0.000169,0.40221,-0.05886,9.70209,0.006889,0.0,0.0,0.0,0.006889,0.0,0.0,0.0,0.006889
1421851136533635855,83158,1421851136533635855,fcu,-0.0248846954163,-0.0104568436194,-0.735632049902,0.676843330109,0.0,0.0,0.0,0.0,0.0,0.0,0.0,0.0,0.0,0.0172787595947,-0.152890842475,0.0363901149041,0.000169,0.0,0.0,0.0,0.000169,0.0,0.0,0.0,0.000169,0.40221,-0.05886,9.70209,0.006889,0.0,0.0,0.0,0.006889,0.0,0.0,0.0,0.006889
1421851136535637856,83159,1421851136535637856,fcu,-0.0247665635915,-0.0105852354731,-0.735630213634,0.676847662998,0.0,0.0,0.0,0.0,0.0,0.0,0.0,0.0,0.0,0.287717527191,-0.0908443875663,0.00733038285838,0.000169,0.0,0.0,0.0,0.000169,0.0,0.0,0.0,0.000169,0.40221,-0.05886,9.70209,0.006889,0.0,0.0,0.0,0.006889,0.0,0.0,0.0,0.006889
1421851136537637949,83160,1421851136537637949,fcu,-0.0245842616882,-0.0106545317477,-0.735629461644,0.67685403906,0.0,0.0,0.0,0.0,0.0,0.0,0.0,0.0,0.0,0.326987435361,0.111002940427,-0.0513126800086,0.000169,0.0,0.0,0.0,0.000169,0.0,0.0,0.0,0.000169,0.44145,-0.24525,10.12392,0.006889,0.0,0.0,0.0,0.006889,0.0,0.0,0.0,0.006889
1421851136539638042,83161,1421851136539638042,fcu,-0.0245791589208,-0.0105312404928,-0.735631484554,0.676853955336,0.0,0.0,0.0,0.0,0.0,0.0,0.0,0.0,0.0,-0.118333323285,0.119642320224,0.06780604144,0.000169,0.0,0.0,0.0,0.000169,0.0,0.0,0.0,0.000169,0.44145,-0.24525,10.12392,0.006889,0.0,0.0,0.0,0.006889,0.0,0.0,0.0,0.006889
1421851136541640043,83162,1421851136541640043,fcu,-0.0246382254775,-0.0104670444953,-0.735632400777,0.676851807822,0.0,0.0,0.0,0.0,0.0,0.0,0.0,0.0,0.0,-0.122783912878,-0.0583812634792,-0.0636172512352,0.000169,0.0,0.0,0.0,0.000169,0.0,0.0,0.0,0.000169,0.44145,-0.0981,9.81981,0.006889,0.0,0.0,0.0,0.006889,0.0,0.0,0.0,0.006889
1421851136543639898,83163,1421851136543639898,fcu,-0.0249497814204,-0.0105137619399,-0.735690020981,0.676777040277,0.0,0.0,0.0,0.0,0.0,0.0,0.0,0.0,0.0,-0.182212373908,-0.180641577581,-0.0274889357189,0.000169,0.0,0.0,0.0,0.000169,0.0,0.0,0.0,0.000169,0.44145,-0.0981,9.81981,0.006889,0.0,0.0,0.0,0.006889,0.0,0.0,0.0,0.006889
1421851136545639992,83164,1421851136545639992,fcu,-0.0250730144576,-0.0105086508094,-0.73568984339,0.676772758419,0.0,0.0,0.0,0.0,0.0,0.0,0.0,0.0,0.0,-0.127496301858,-0.180379778194,0.0416261026601,0.000169,0.0,0.0,0.0,0.000169,0.0,0.0,0.0,0.000169,0.44145,-0.0981,9.81981,0.006889,0.0,0.0,0.0,0.006889,0.0,0.0,0.0,0.006889
1421851136547641993,83165,1421851136547641993,fcu,-0.024960008459,-0.0107603432033,-0.735685953658,0.67677720897,0.0,0.0,0.0,0.0,0.0,0.0,0.0,0.0,0.0,0.216246294322,0.00602138591938,-0.00183259571459,0.000169,0.0,0.0,0.0,0.000169,0.0,0.0,0.0,0.000169,0.41202,-0.21582,10.06506,0.006889,0.0,0.0,0.0,0.006889,0.0,0.0,0.0,0.006889
1421851136549641848,83166,1421851136549641848,fcu,-0.024960008459,-0.0107603432033,-0.735685953658,0.67677720897,0.0,0.0,0.0,0.0,0.0,0.0,0.0,0.0,0.0,0.00733038285838,0.0246091424531,-0.0261799387799,0.000169,0.0,0.0,0.0,0.000169,0.0,0.0,0.0,0.000169,0.41202,-0.21582,10.06506,0.006889,0.0,0.0,0.0,0.006889,0.0,0.0,0.0,0.006889
1421851136551641941,83167,1421851136551641941,fcu,-0.024960008459,-0.0107603432033,-0.735685953658,0.67677720897,0.0,0.0,0.0,0.0,0.0,0.0,0.0,0.0,0.0,-0.106552350834,0.0492182849062,-0.0102101761242,0.000169,0.0,0.0,0.0,0.000169,0.0,0.0,0.0,0.000169,0.48069,-0.20601,10.1043,0.006889,0.0,0.0,0.0,0.006889,0.0,0.0,0.0,0.006889
1421851136567647934,83175,1421851136567647934,fcu,-0.0252074118132,-0.0107479212526,-0.735744653986,0.676704420489,0.0,0.0,0.0,0.0,0.0,0.0,0.0,0.0,0.0,0.0136135681656,-0.0733038285838,-0.00287979326579,0.000169,0.0,0.0,0.0,0.000169,0.0,0.0,0.0,0.000169,0.3924,-0.12753,9.81981,0.006889,0.0,0.0,0.0,0.006889,0.0,0.0,0.0,0.006889
1421851136569648027,83176,1421851136569648027,fcu,-0.0251483581163,-0.0108121270449,-0.735743713251,0.676706617674,0.0,0.0,0.0,0.0,0.0,0.0,0.0,0.0,0.0,0.0971275728735,-0.0641408500108,-0.0136135681656,0.000169,0.0,0.0,0.0,0.000169,0.0,0.0,0.0,0.000169,0.3924,-0.12753,9.81981,0.006889,0.0,0.0,0.0,0.006889,0.0,0.0,0.0,0.006889
1421851136579651833,83181,1421851136579651833,fcu,-0.0253348188162,-0.0108683000006,-0.735683352269,0.676764384557,0.0,0.0,0.0,0.0,0.0,0.0,0.0,0.0,0.0,-0.000523598775598,-0.129852496348,-0.0222529479629,0.000169,0.0,0.0,0.0,0.000169,0.0,0.0,0.0,0.000169,0.41202,-0.18639,10.0062,0.006889,0.0,0.0,0.0,0.006889,0.0,0.0,0.0,0.006889
1421851136581651926,83182,1421851136581651926,fcu,-0.0253399322982,-0.0109915897336,-0.735681264812,0.676764471135,0.0,0.0,0.0,0.0,0.0,0.0,0.0,0.0,0.0,0.13561208288,-0.130637894512,-0.0311541271481,0.000169,0.0,0.0,0.0,0.000169,0.0,0.0,0.0,0.000169,0.3924,-0.18639,9.99639,0.006889,0.0,0.0,0.0,0.006889,0.0,0.0,0.0,0.006889
1421851136589655876,83186,1421851136589655876,fcu,-0.0254631630765,-0.0109864786968,-0.735681084545,0.676760124753,0.0,0.0,0.0,0.0,0.0,0.0,0.0,0.0,0.0,-0.06780604144,0.0761836218496,-0.0227765467385,0.000169,0.0,0.0,0.0,0.000169,0.0,0.0,0.0,0.000169,0.42183,-0.14715,9.96696,0.006889,0.0,0.0,0.0,0.006889,0.0,0.0,0.0,0.006889
1421851136591655970,83187,1421851136591655970,fcu,-0.0254631630765,-0.0109864786968,-0.735681084545,0.676760124753,0.0,0.0,0.0,0.0,0.0,0.0,0.0,0.0,0.0,-0.0363901149041,-0.117286125734,-0.0138753675534,0.000169,0.0,0.0,0.0,0.000169,0.0,0.0,0.0,0.000169,0.40221,-0.17658,9.95715,0.006889,0.0,0.0,0.0,0.006889,0.0,0.0,0.0,0.006889
1421851136595657825,83189,1421851136595657825,fcu,-0.025661776337,-0.0112847955535,-0.735734554795,0.676689582826,0.0,0.0,0.0,0.0,0.0,0.0,0.0,0.0,0.0,-0.010471975512,-0.162053821048,-0.0248709418409,0.000169,0.0,0.0,0.0,0.000169,0.0,0.0,0.0,0.000169,0.43164,-0.20601,10.08468,0.006889,0.0,0.0,0.0,0.006889,0.0,0.0,0.0,0.006889
1421851136597657919,83190,1421851136597657919,fcu,-0.0257198492662,-0.0112228350816,-0.735676481865,0.676751543298,0.0,0.0,0.0,0.0,0.0,0.0,0.0,0.0,0.0,0.0455530934771,0.0693768377668,0.0589048622548,0.000169,0.0,0.0,0.0,0.000169,0.0,0.0,0.0,0.000169,0.43164,-0.20601,10.08468,0.006889,0.0,0.0,0.0,0.006889,0.0,0.0,0.0,0.006889
1421851136605659962,83194,1421851136605659962,fcu,-0.0257249627022,-0.0113461237048,-0.735674329854,0.676751632554,0.0,0.0,0.0,0.0,0.0,0.0,0.0,0.0,0.0,0.0379609112309,-0.206559716974,-0.0565486677646,0.000169,0.0,0.0,0.0,0.000169,0.0,0.0,0.0,0.000169,0.40221,-0.21582,10.06506,0.006889,0.0,0.0,0.0,0.006889,0.0,0.0,0.0,0.006889
1421851136607661963,83195,1421851136607661963,fcu,-0.0258533046082,-0.0114643010087,-0.735671973382,0.676747311796,0.0,0.0,0.0,0.0,0.0,0.0,0.0,0.0,0.0,-0.0411025038845,-0.102363560629,0.0641408500108,0.000169,0.0,0.0,0.0,0.000169,0.0,0.0,0.0,0.000169,0.40221,-0.21582,10.06506,0.006889,0.0,0.0,0.0,0.006889,0.0,0.0,0.0,0.006889
1421851136619665861,83201,1421851136619665861,fcu,-0.0259806348658,-0.0115847452457,-0.735610534733,0.67680716713,0.0,0.0,0.0,0.0,0.0,0.0,0.0,0.0,0.0,-0.0295833308213,-0.157865030843,0.0397935069455,0.000169,0.0,0.0,0.0,0.000169,0.0,0.0,0.0,0.000169,0.37278,-0.21582,10.05525,0.006889,0.0,0.0,0.0,0.006889,0.0,0.0,0.0,0.006889
1421851136621665955,83202,1421851136621665955,fcu,-0.025916469562,-0.0115256512125,-0.735611726786,0.676809340497,0.0,0.0,0.0,0.0,0.0,0.0,0.0,0.0,0.0,0.0958185759345,0.176190987989,0.0473856891916,0.000169,0.0,0.0,0.0,0.000169,0.0,0.0,0.0,0.000169,0.37278,-0.21582,10.05525,0.006889,0.0,0.0,0.0,0.006889,0.0,0.0,0.0,0.006889
1421851136625668049,83204,1421851136625668049,fcu,-0.0258472013994,-0.0113432684001,-0.735615086773,0.676811418752,0.0,0.0,0.0,0.0,0.0,0.0,0.0,0.0,0.0,-0.118071523897,-0.100269165527,-0.048171087355,0.000169,0.0,0.0,0.0,0.000169,0.0,0.0,0.0,0.000169,0.43164,-0.15696,10.06506,0.006889,0.0,0.0,0.0,0.006889,0.0,0.0,0.0,0.006889
1421851136627667904,83205,1421851136627667904,fcu,-0.0260407025927,-0.0115182786363,-0.73567060246,0.676740700521,0.0,0.0,0.0,0.0,0.0,0.0,0.0,0.0,0.0,0.0450294947015,-0.0570722665402,-0.0578576647036,0.000169,0.0,0.0,0.0,0.000169,0.0,0.0,0.0,0.000169,0.36297,-0.1962,9.98658,0.006889,0.0,0.0,0.0,0.006889,0.0,0.0,0.0,0.006889
1421851136635669947,83209,1421851136635669947,fcu,-0.0259113669084,-0.0114023627112,-0.735613911082,0.676809250094,0.0,0.0,0.0,0.0,0.0,0.0,0.0,0.0,0.0,-0.0890117918517,0.0426733002113,-0.0314159265359,0.000169,0.0,0.0,0.0,0.000169,0.0,0.0,0.0,0.000169,0.41202,-0.15696,9.99639,0.006889,0.0,0.0,0.0,0.006889,0.0,0.0,0.0,0.006889
1421851136637671947,83210,1421851136637671947,fcu,-0.0260987596042,-0.0114563568114,-0.735612545449,0.676802622346,0.0,0.0,0.0,0.0,0.0,0.0,0.0,0.0,0.0,0.0151843644924,-0.18797196044,-0.0374373124553,0.000169,0.0,0.0,0.0,0.000169,0.0,0.0,0.0,0.000169,0.41202,-0.15696,9.99639,0.006889,0.0,0.0,0.0,0.006889,0.0,0.0,0.0,0.006889
1421851136639672041,83211,1421851136639672041,fcu,-0.026162924329,-0.0115154509645,-0.735611358108,0.676800432626,0.0,0.0,0.0,0.0,0.0,0.0,0.0,0.0,0.0,0.0115191730632,-0.0583812634792,-0.0659734457254,0.000169,0.0,0.0,0.0,0.000169,0.0,0.0,0.0,0.000169,0.35316,-0.20601,10.04544,0.006889,0.0,0.0,0.0,0.006889,0.0,0.0,0.0,0.006889
1421851136641671896,83212,1421851136641671896,fcu,-0.0260987596042,-0.0114563568114,-0.735612545449,0.676802622346,0.0,0.0,0.0,0.0,0.0,0.0,0.0,0.0,0.0,0.0641408500108,0.0246091424531,-0.0308923277603,0.000169,0.0,0.0,0.0,0.000169,0.0,0.0,0.0,0.000169,0.35316,-0.20601,10.04544,0.006889,0.0,0.0,0.0,0.006889,0.0,0.0,0.0,0.006889
1421851136643673897,83213,1421851136643673897,fcu,-0.0259113669084,-0.0114023627112,-0.735613911082,0.676809250094,0.0,0.0,0.0,0.0,0.0,0.0,0.0,0.0,0.0,0.0400553063333,0.154461638801,0.0528834763354,0.000169,0.0,0.0,0.0,0.000169,0.0,0.0,0.0,0.000169,0.35316,-0.20601,10.04544,0.006889,0.0,0.0,0.0,0.006889,0.0,0.0,0.0,0.006889
1421851136651675940,83217,1421851136651675940,fcu,-0.0260936569428,-0.01133306812,-0.735614718985,0.676802532388,0.0,0.0,0.0,0.0,0.0,0.0,0.0,0.0,0.0,0.000523598775598,-0.0222529479629,0.00706858347058,0.000169,0.0,0.0,0.0,0.000169,0.0,0.0,0.0,0.000169,0.36297,-0.15696,9.9081,0.006889,0.0,0.0,0.0,0.006889,0.0,0.0,0.0,0.006889
1421851136653676033,83218,1421851136653676033,fcu,-0.0259694400181,-0.0113404345483,-0.735555837972,0.676871178257,0.0,0.0,0.0,0.0,0.0,0.0,0.0,0.0,0.0,0.10707594961,0.111002940427,0.074351026135,0.000169,0.0,0.0,0.0,0.000169,0.0,0.0,0.0,0.000169,0.41202,-0.21582,10.15335,0.006889,0.0,0.0,0.0,0.006889,0.0,0.0,0.0,0.006889
1421851136655678034,83219,1421851136655678034,fcu,-0.0259042952749,-0.0112835951548,-0.735497937173,0.676937539497,0.0,0.0,0.0,0.0,0.0,0.0,0.0,0.0,0.0,0.0536688744988,0.185353966562,0.0788016157275,0.000169,0.0,0.0,0.0,0.000169,0.0,0.0,0.0,0.000169,0.41202,-0.21582,10.15335,0.006889,0.0,0.0,0.0,0.006889,0.0,0.0,0.0,0.006889
1421851136657677889,83220,1421851136657677889,fcu,-0.0259052798557,-0.0112813345356,-0.735557008317,0.676873352617,0.0,0.0,0.0,0.0,0.0,0.0,0.0,0.0,0.0,-0.200538331054,-0.118333323285,-0.0609992573572,0.000169,0.0,0.0,0.0,0.000169,0.0,0.0,0.0,0.000169,0.41202,-0.21582,10.15335,0.006889,0.0,0.0,0.0,0.006889,0.0,0.0,0.0,0.006889
1421851136659677982,83221,1421851136659677982,fcu,-0.0261517355119,-0.0112711557949,-0.735556640416,0.676864444713,0.0,0.0,0.0,0.0,0.0,0.0,0.0,0.0,0.0,-0.274627557801,-0.251065612899,-0.056025068989,0.000169,0.0,0.0,0.0,0.000169,0.0,0.0,0.0,0.000169,0.41202,-0.13734,9.95715,0.006889,0.0,0.0,0.0,0.006889,0.0,0.0,0.0,0.006889
1421851136661679983,83222,1421851136661679983,fcu,-0.0262749621702,-0.0112660664729,-0.735556455133,0.6768599585,0.0,0.0,0.0,0.0,0.0,0.0,0.0,0.0,0.0,-0.132994089002,-0.146607657168,-0.0293215314335,0.000169,0.0,0.0,0.0,0.000169,0.0,0.0,0.0,0.000169,0.41202,-0.13734,9.95715,0.006889,0.0,0.0,0.0,0.006889,0.0,0.0,0.0,0.006889
1421851136663679838,83223,1421851136663679838,fcu,-0.0260926678467,-0.011335345178,-0.735555654022,0.676866724305,0.0,0.0,0.0,0.0,0.0,0.0,0.0,0.0,0.0,0.298713101479,0.217555291261,0.0452912940893,0.000169,0.0,0.0,0.0,0.000169,0.0,0.0,0.0,0.000169,0.3924,-0.1962,10.07487,0.006889,0.0,0.0,0.0,0.006889,0.0,0.0,0.0,0.006889
1421851136665679932,83224,1421851136665679932,fcu,-0.0259042952749,-0.0112835951548,-0.735497937173,0.676937539497,0.0,0.0,0.0,0.0,0.0,0.0,0.0,0.0,0.0,0.186924762889,0.313373867196,0.0932005820565,0.000169,0.0,0.0,0.0,0.000169,0.0,0.0,0.0,0.000169,0.3924,-0.1962,10.07487,0.006889,0.0,0.0,0.0,0.006889,0.0,0.0,0.0,0.006889
1421851136667681932,83225,1421851136667681932,fcu,-0.0257067478896,-0.010982987105,-0.73550352303,0.676943945033,0.0,0.0,0.0,0.0,0.0,0.0,0.0,0.0,0.0,-0.186139364725,0.0968657734857,-0.0366519142919,0.000169,0.0,0.0,0.0,0.000169,0.0,0.0,0.0,0.000169,0.47088,-0.18639,10.1043,0.006889,0.0,0.0,0.0,0.006889,0.0,0.0,0.0,0.006889
1421851136671681881,83227,1421851136671681881,fcu,-0.0260773920466,-0.0109654755193,-0.735562045547,0.676866460332,0.0,0.0,0.0,0.0,0.0,0.0,0.0,0.0,0.0,-0.154985237577,-0.28195794066,-0.061261056745,0.000169,0.0,0.0,0.0,0.000169,0.0,0.0,0.0,0.000169,0.38259,-0.10791,9.87867,0.006889,0.0,0.0,0.0,0.006889,0.0,0.0,0.0,0.006889
1421851136673683882,83228,1421851136673683882,fcu,-0.0261466435862,-0.0111478660938,-0.735558781684,0.676864356277,0.0,0.0,0.0,0.0,0.0,0.0,0.0,0.0,0.0,0.262061187187,0.0392699081699,-0.0010471975512,0.000169,0.0,0.0,0.0,0.000169,0.0,0.0,0.0,0.000169,0.38259,-0.10791,9.87867,0.006889,0.0,0.0,0.0,0.006889,0.0,0.0,0.0,0.006889
1421851136679685831,83231,1421851136679685831,fcu,-0.0255825583151,-0.0109902983583,-0.735444626246,0.677012516707,0.0,0.0,0.0,0.0,0.0,0.0,0.0,0.0,0.0,0.0371755130675,0.126972703083,0.0345575191895,0.000169,0.0,0.0,0.0,0.000169,0.0,0.0,0.0,0.000169,0.45126,-0.21582,10.15335,0.006889,0.0,0.0,0.0,0.006889,0.0,0.0,0.0,0.006889
1421851136681685925,83232,1421851136681685925,fcu,-0.0257648693517,-0.0109210507232,-0.735445401568,0.677005881415,0.0,0.0,0.0,0.0,0.0,0.0,0.0,0.0,0.0,-0.226456470446,-0.0575958653158,-0.0471238898038,0.000169,0.0,0.0,0.0,0.000169,0.0,0.0,0.0,0.000169,0.42183,-0.11772,9.9081,0.006889,0.0,0.0,0.0,0.006889,0.0,0.0,0.0,0.006889
1421851136689687967,83236,1421851136689687967,fcu,-0.0255133368394,-0.0108078949473,-0.735447839335,0.67701457493,0.0,0.0,0.0,0.0,0.0,0.0,0.0,0.0,0.0,0.00602138591938,0.175143790438,0.0531452757232,0.000169,0.0,0.0,0.0,0.000169,0.0,0.0,0.0,0.000169,0.48069,-0.1962,10.04544,0.006889,0.0,0.0,0.0,0.006889,0.0,0.0,0.0,0.006889
1421851136691689968,83237,1421851136691689968,fcu,-0.0255774878696,-0.0108670068478,-0.735446713733,0.677012430858,0.0,0.0,0.0,0.0,0.0,0.0,0.0,0.0,0.0,0.0010471975512,0.100007366139,0.0191113553093,0.000169,0.0,0.0,0.0,0.000169,0.0,0.0,0.0,0.000169,0.48069,-0.1962,10.04544,0.006889,0.0,0.0,0.0,0.006889,0.0,0.0,0.0,0.006889
1421851136695689917,83239,1421851136695689917,fcu,-0.0258138082265,-0.0106102868584,-0.735450462228,0.677003461385,0.0,0.0,0.0,0.0,0.0,0.0,0.0,0.0,0.0,-0.145036860841,-0.0570722665402,0.0431968989869,0.000169,0.0,0.0,0.0,0.000169,0.0,0.0,0.0,0.000169,0.40221,-0.05886,9.82962,0.006889,0.0,0.0,0.0,0.006889,0.0,0.0,0.0,0.006889
1421851136697691917,83240,1421851136697691917,fcu,-0.0255724174093,-0.0107437149749,-0.735448779701,0.677012345894,0.0,0.0,0.0,0.0,0.0,0.0,0.0,0.0,0.0,0.277245551679,0.0688532389912,-0.00628318530718,0.000169,0.0,0.0,0.0,0.000169,0.0,0.0,0.0,0.000169,0.40221,-0.05886,9.82962,0.006889,0.0,0.0,0.0,0.006889,0.0,0.0,0.0,0.006889
1421851136703693867,83243,1421851136703693867,fcu,-0.0255123935755,-0.0108101213648,-0.735388755867,0.677078752284,0.0,0.0,0.0,0.0,0.0,0.0,0.0,0.0,0.0,-0.233786853305,-0.130114295736,0.0280125344945,0.000169,0.0,0.0,0.0,0.000169,0.0,0.0,0.0,0.000169,0.44145,-0.0981,9.76095,0.006889,0.0,0.0,0.0,0.006889,0.0,0.0,0.0,0.006889
1421851136705693960,83244,1421851136705693960,fcu,-0.0255714797459,-0.0107459465484,-0.735389696428,0.677076523329,0.0,0.0,0.0,0.0,0.0,0.0,0.0,0.0,0.0,-0.228550865549,-0.118595122673,0.0497418836818,0.000169,0.0,0.0,0.0,0.000169,0.0,0.0,0.0,0.000169,0.44145,-0.0981,9.76095,0.006889,0.0,0.0,0.0,0.006889,0.0,0.0,0.0,0.006889
1421851136707694054,83245,1421851136707694054,fcu,-0.02575379681,-0.0106767144616,-0.735390450811,0.677069888988,0.0,0.0,0.0,0.0,0.0,0.0,0.0,0.0,0.0,0.0416261026601,0.00183259571459,-0.0335103216383,0.000169,0.0,0.0,0.0,0.000169,0.0,0.0,0.0,0.000169,0.41202,-0.11772,9.91791,0.006889,0.0,0.0,0.0,0.006889,0.0,0.0,0.0,0.006889
1421851136709696054,83246,1421851136709696054,fcu,-0.02563562543,-0.0108050641449,-0.735388576172,0.677074373561,0.0,0.0,0.0,0.0,0.0,0.0,0.0,0.0,0.0,0.213104701669,0.0178023583703,-0.0382227106187,0.000169,0.0,0.0,0.0,0.000169,0.0,0.0,0.0,0.000169,0.41202,-0.11772,9.91791,0.006889,0.0,0.0,0.0,0.006889,0.0,0.0,0.0,0.006889
1421851136711695910,83247,1421851136711695910,fcu,-0.0254482475097,-0.010751003784,-0.735389875682,0.677080891298,0.0,0.0,0.0,0.0,0.0,0.0,0.0,0.0,0.0,0.0178023583703,0.175929188601,-0.0138753675534,0.000169,0.0,0.0,0.0,0.000169,0.0,0.0,0.0,0.000169,0.4905,-0.28449,10.07487,0.006889,0.0,0.0,0.0,0.006889,0.0,0.0,0.0,0.006889
1421851136713696003,83248,1421851136713696003,fcu,-0.0255705418878,-0.01074817804,-0.735330607555,0.677140695608,0.0,0.0,0.0,0.0,0.0,0.0,0.0,0.0,0.0,-0.147654854719,-0.1094321441,0.0492182849062,0.000169,0.0,0.0,0.0,0.000169,0.0,0.0,0.0,0.000169,0.4905,-0.28449,10.07487,0.006889,0.0,0.0,0.0,0.006889,0.0,0.0,0.0,0.006889
1421851136719697952,83251,1421851136719697952,fcu,-0.025930137391,-0.0104864521994,-0.735334133063,0.677127296044,0.0,0.0,0.0,0.0,0.0,0.0,0.0,0.0,0.0,0.00890117918517,-0.0337721210261,-0.0314159265359,0.000169,0.0,0.0,0.0,0.000169,0.0,0.0,0.0,0.000169,0.43164,-0.0981,9.7119,0.006889,0.0,0.0,0.0,0.006889,0.0,0.0,0.0,0.006889
1421851136721699953,83252,1421851136721699953,fcu,-0.0258119559889,-0.0106147920563,-0.735332291632,0.677131811393,0.0,0.0,0.0,0.0,0.0,0.0,0.0,0.0,0.0,0.180903376969,-0.00183259571459,-0.0350811179651,0.000169,0.0,0.0,0.0,0.000169,0.0,0.0,0.0,0.000169,0.47088,-0.20601,10.07487,0.006889,0.0,0.0,0.0,0.006889,0.0,0.0,0.0,0.006889
1421851136733703852,83258,1421851136733703852,fcu,-0.0260574904258,-0.0106069732991,-0.735272834799,0.677187092107,0.0,0.0,0.0,0.0,0.0,0.0,0.0,0.0,0.0,0.165719012477,-0.0526216769476,-0.0379609112309,0.000169,0.0,0.0,0.0,0.000169,0.0,0.0,0.0,0.000169,0.45126,-0.14715,10.05525,0.006889,0.0,0.0,0.0,0.006889,0.0,0.0,0.0,0.006889
1421851136735703945,83259,1421851136735703945,fcu,-0.0259933564002,-0.0105478441851,-0.735273940079,0.677189280369,0.0,0.0,0.0,0.0,0.0,0.0,0.0,0.0,0.0,0.0500036830696,0.0256563400043,-0.0301069295969,0.000169,0.0,0.0,0.0,0.000169,0.0,0.0,0.0,0.000169,0.47088,-0.27468,10.01601,0.006889,0.0,0.0,0.0,0.006889,0.0,0.0,0.0,0.006889
1421851136739706039,83261,1421851136739706039,fcu,-0.0260515372413,-0.0104859528547,-0.735215759238,0.677251171699,0.0,0.0,0.0,0.0,0.0,0.0,0.0,0.0,0.0,-0.263631983514,0.115977128795,0.050789081233,0.000169,0.0,0.0,0.0,0.000169,0.0,0.0,0.0,0.000169,0.47088,-0.27468,10.01601,0.006889,0.0,0.0,0.0,0.006889,0.0,0.0,0.0,0.006889
1421851136741705894,83262,1421851136741705894,fcu,-0.0262288402887,-0.0102934734619,-0.735218479258,0.677244328214,0.0,0.0,0.0,0.0,0.0,0.0,0.0,0.0,0.0,-0.129067098185,-0.126187304919,0.00942477796077,0.000169,0.0,0.0,0.0,0.000169,0.0,0.0,0.0,0.000169,0.43164,-0.0981,9.96696,0.006889,0.0,0.0,0.0,0.006889,0.0,0.0,0.0,0.006889
1421851136743705988,83263,1421851136743705988,fcu,-0.0261747669385,-0.0104809280387,-0.735215576743,0.677246696144,0.0,0.0,0.0,0.0,0.0,0.0,0.0,0.0,0.0,0.22122048269,-0.129067098185,-0.0185877565337,0.000169,0.0,0.0,0.0,0.000169,0.0,0.0,0.0,0.000169,0.43164,-0.0981,9.96696,0.006889,0.0,0.0,0.0,0.006889,0.0,0.0,0.0,0.006889
1421851136745707989,83264,1421851136745707989,fcu,-0.0261206933604,-0.0106683818334,-0.73521262559,0.677249060672,0.0,0.0,0.0,0.0,0.0,0.0,0.0,0.0,0.0,0.101839961854,-0.058643062867,-0.0010471975512,0.000169,0.0,0.0,0.0,0.000169,0.0,0.0,0.0,0.000169,0.43164,-0.0981,9.96696,0.006889,0.0,0.0,0.0,0.006889,0.0,0.0,0.0,0.006889
1421851136757711887,83270,1421851136757711887,fcu,-0.0259314812821,-0.0106187981104,-0.735095703279,0.677384016955,0.0,0.0,0.0,0.0,0.0,0.0,0.0,0.0,0.0,0.0578576647036,0.126972703083,0.0659734457254,0.000169,0.0,0.0,0.0,0.000169,0.0,0.0,0.0,0.000169,0.45126,-0.21582,10.03563,0.006889,0.0,0.0,0.0,0.006889,0.0,0.0,0.0,0.006889
1421851136759711981,83271,1421851136759711981,fcu,-0.0258014101448,-0.0105050096127,-0.734979668452,0.677516655861,0.0,0.0,0.0,0.0,0.0,0.0,0.0,0.0,0.0,0.00418879020479,0.266773576167,0.180903376969,0.000169,0.0,0.0,0.0,0.000169,0.0,0.0,0.0,0.000169,0.45126,-0.21582,10.03563,0.006889,0.0,0.0,0.0,0.006889,0.0,0.0,0.0,0.006889
1421851136765713930,83274,1421851136765713930,fcu,-0.0259846777437,-0.0104336210983,-0.735039523859,0.677445816608,0.0,0.0,0.0,0.0,0.0,0.0,0.0,0.0,0.0,0.188233759828,-0.311279472093,-0.0924151838931,0.000169,0.0,0.0,0.0,0.000169,0.0,0.0,0.0,0.000169,0.44145,0.0,9.82962,0.006889,0.0,0.0,0.0,0.006889,0.0,0.0,0.0,0.006889
1421851136768713951,83275,1421851136768713951,fcu,-0.0258723682765,-0.0106829472716,-0.735094773815,0.677386277325,0.0,0.0,0.0,0.0,0.0,0.0,0.0,0.0,0.0,-0.0335103216383,0.167813407579,0.0191113553093,0.000169,0.0,0.0,0.0,0.000169,0.0,0.0,0.0,0.000169,0.43164,-0.22563,9.96696,0.006889,0.0,0.0,0.0,0.006889,0.0,0.0,0.0,0.006889
1421851136769716024,83276,1421851136769716024,fcu,-0.0258014101448,-0.0105050096127,-0.734979668452,0.677516655861,0.0,0.0,0.0,0.0,0.0,0.0,0.0,0.0,0.0,-0.0259181393921,0.274889357189,0.144251462677,0.000169,0.0,0.0,0.0,0.000169,0.0,0.0,0.0,0.000169,0.43164,-0.22563,9.96696,0.006889,0.0,0.0,0.0,0.006889,0.0,0.0,0.0,0.006889
1421851136771715879,83277,1421851136771715879,fcu,-0.0257314157973,-0.010324801283,-0.734923624395,0.67758287982,0.0,0.0,0.0,0.0,0.0,0.0,0.0,0.0,0.0,-0.14634585778,0.344266194956,0.140586271248,0.000169,0.0,0.0,0.0,0.000169,0.0,0.0,0.0,0.000169,0.43164,-0.22563,9.96696,0.006889,0.0,0.0,0.0,0.006889,0.0,0.0,0.0,0.006889
1421851136775717974,83279,1421851136775717974,fcu,-0.0258455811808,-0.0100709795987,-0.734986489961,0.677514162862,0.0,0.0,0.0,0.0,0.0,0.0,0.0,0.0,0.0,-0.157079632679,-0.198443935952,-0.103148958793,0.000169,0.0,0.0,0.0,0.000169,0.0,0.0,0.0,0.000169,0.47088,-0.04905,9.88848,0.006889,0.0,0.0,0.0,0.006889,0.0,0.0,0.0,0.006889
1421851136777717829,83280,1421851136777717829,fcu,-0.0259896729245,-0.0105569169354,-0.735037511636,0.67744589813,0.0,0.0,0.0,0.0,0.0,0.0,0.0,0.0,0.0,0.25342180739,-0.210486707791,-0.0562868683768,0.000169,0.0,0.0,0.0,0.000169,0.0,0.0,0.0,0.000169,0.38259,-0.18639,9.86886,0.006889,0.0,0.0,0.0,0.006889,0.0,0.0,0.0,0.006889
1421851136787721872,83285,1421851136787721872,fcu,-0.0259137793931,-0.0102556959497,-0.734924343799,0.677576199132,0.0,0.0,0.0,0.0,0.0,0.0,0.0,0.0,0.0,0.163101018599,-0.344004395568,-0.0735656279716,0.000169,0.0,0.0,0.0,0.000169,0.0,0.0,0.0,0.000169,0.42183,-0.08829,9.75114,0.006889,0.0,0.0,0.0,0.006889,0.0,0.0,0.0,0.006889
1421851136789721966,83286,1421851136789721966,fcu,-0.025919658715,-0.0103767313019,-0.734981490728,0.677512142347,0.0,0.0,0.0,0.0,0.0,0.0,0.0,0.0,0.0,0.284837733925,-0.193469747584,-0.0510508806208,0.000169,0.0,0.0,0.0,0.000169,0.0,0.0,0.0,0.000169,0.35316,-0.26487,9.85905,0.006889,0.0,0.0,0.0,0.006889,0.0,0.0,0.0,0.006889
1421851136791721821,83287,1421851136791721821,fcu,-0.0257363894729,-0.0104480983394,-0.734921633678,0.677582960123,0.0,0.0,0.0,0.0,0.0,0.0,0.0,0.0,0.0,0.0633554518474,0.121474915939,0.0968657734857,0.000169,0.0,0.0,0.0,0.000169,0.0,0.0,0.0,0.000169,0.35316,-0.26487,9.85905,0.006889,0.0,0.0,0.0,0.006889,0.0,0.0,0.0,0.006889
1421851136795723915,83289,1421851136795723915,fcu,-0.0254700247434,-0.00996485039803,-0.734929821574,0.677591423321,0.0,0.0,0.0,0.0,0.0,0.0,0.0,0.0,0.0,-0.0740892267472,0.227503667997,-0.0801106126665,0.000169,0.0,0.0,0.0,0.000169,0.0,0.0,0.0,0.000169,0.4905,-0.18639,9.99639,0.006889,0.0,0.0,0.0,0.006889,0.0,0.0,0.0,0.006889
1421851136797724009,83290,1421851136797724009,fcu,-0.0255882863681,-0.00983658079533,-0.734931549575,0.677586967642,0.0,0.0,0.0,0.0,0.0,0.0,0.0,0.0,0.0,-0.144775061453,-0.117024326346,-0.06780604144,0.000169,0.0,0.0,0.0,0.000169,0.0,0.0,0.0,0.000169,0.38259,-0.11772,9.75114,0.006889,0.0,0.0,0.0,0.006889,0.0,0.0,0.0,0.006889
1421851136799726009,83291,1421851136799726009,fcu,-0.0257173633192,-0.00995266383024,-0.734988594872,0.677518506843,0.0,0.0,0.0,0.0,0.0,0.0,0.0,0.0,0.0,0.0209439510239,-0.261275789024,-0.053407075111,0.000169,0.0,0.0,0.0,0.000169,0.0,0.0,0.0,0.000169,0.38259,-0.11772,9.75114,0.006889,0.0,0.0,0.0,0.006889,0.0,0.0,0.0,0.006889
1421851136801725864,83292,1421851136801725864,fcu,-0.0256623380594,-0.0101423406258,-0.734926658983,0.677584963859,0.0,0.0,0.0,0.0,0.0,0.0,0.0,0.0,0.0,0.186139364725,-0.0853466004225,0.0484328867428,0.000169,0.0,0.0,0.0,0.000169,0.0,0.0,0.0,0.000169,0.35316,-0.27468,9.92772,0.006889,0.0,0.0,0.0,0.006889,0.0,0.0,0.0,0.006889
1421851136803725958,83293,1421851136803725958,fcu,-0.0255323794673,-0.0100284702774,-0.734810500143,0.677717534274,0.0,0.0,0.0,0.0,0.0,0.0,0.0,0.0,0.0,-0.059952059806,0.197396738401,0.141895268187,0.000169,0.0,0.0,0.0,0.000169,0.0,0.0,0.0,0.000169,0.35316,-0.27468,9.92772,0.006889,0.0,0.0,0.0,0.006889,0.0,0.0,0.0,0.006889
1421851136805727959,83294,1421851136805727959,fcu,-0.025468285161,-0.00996929560416,-0.734811548368,0.677719682451,0.0,0.0,0.0,0.0,0.0,0.0,0.0,0.0,0.0,-0.0240855436775,0.160483024721,0.0431968989869,0.000169,0.0,0.0,0.0,0.000169,0.0,0.0,0.0,0.000169,0.48069,-0.14715,10.02582,0.006889,0.0,0.0,0.0,0.006889,0.0,0.0,0.0,0.006889
1421851136807728052,83295,1421851136807728052,fcu,-0.0255923908376,-0.00996211260674,-0.734870511513,0.677651176604,0.0,0.0,0.0,0.0,0.0,0.0,0.0,0.0,0.0,-0.163624617374,-0.146869456555,-0.128019900634,0.000169,0.0,0.0,0.0,0.000169,0.0,0.0,0.0,0.000169,0.48069,-0.14715,10.02582,0.006889,0.0,0.0,0.0,0.006889,0.0,0.0,0.0,0.006889
1421851136825733900,83304,1421851136825733900,fcu,-0.0256596819214,-0.0101490586625,-0.734749242471,0.677777343985,0.0,0.0,0.0,0.0,0.0,0.0,0.0,0.0,0.0,0.152629043087,0.144251462677,0.102887159405,0.000169,0.0,0.0,0.0,0.000169,0.0,0.0,0.0,0.000169,0.37278,-0.20601,9.95715,0.006889,0.0,0.0,0.0,0.006889,0.0,0.0,0.0,0.006889
1421851136827733994,83305,1421851136827733994,fcu,-0.0254015953266,-0.00991677131691,-0.734635138658,0.677914175726,0.0,0.0,0.0,0.0,0.0,0.0,0.0,0.0,0.0,0.0293215314335,0.164933614313,0.0777544181763,0.000169,0.0,0.0,0.0,0.000169,0.0,0.0,0.0,0.000169,0.37278,-0.20601,9.95715,0.006889,0.0,0.0,0.0,0.006889,0.0,0.0,0.0,0.006889
1421851136829735994,83306,1421851136829735994,fcu,-0.0254607544019,-0.00985266226938,-0.734636001262,0.677911956437,0.0,0.0,0.0,0.0,0.0,0.0,0.0,0.0,0.0,-0.0921533845053,0.0293215314335,-0.0308923277603,0.000169,0.0,0.0,0.0,0.000169,0.0,0.0,0.0,0.000169,0.50031,-0.10791,10.06506,0.006889,0.0,0.0,0.0,0.006889,0.0,0.0,0.0,0.006889
1421851136831735849,83307,1421851136831735849,fcu,-0.0256489347963,-0.00990469823366,-0.734693944814,0.677841306318,0.0,0.0,0.0,0.0,0.0,0.0,0.0,0.0,0.0,-0.116500727571,-0.260228591472,-0.153152641863,0.000169,0.0,0.0,0.0,0.000169,0.0,0.0,0.0,0.000169,0.50031,-0.10791,10.06506,0.006889,0.0,0.0,0.0,0.006889,0.0,0.0,0.0,0.006889
1421851136837738037,83310,1421851136837738037,fcu,-0.0254705942503,-0.0100992630841,-0.734632170398,0.677912109296,0.0,0.0,0.0,0.0,0.0,0.0,0.0,0.0,0.0,-0.0578576647036,0.429612795378,0.14870205227,0.000169,0.0,0.0,0.0,0.000169,0.0,0.0,0.0,0.000169,0.35316,-0.15696,9.81981,0.006889,0.0,0.0,0.0,0.006889,0.0,0.0,0.0,0.006889
1421851136839737892,83311,1421851136839737892,fcu,-0.0253424360579,-0.00998088028892,-0.734634270459,0.677916389852,0.0,0.0,0.0,0.0,0.0,0.0,0.0,0.0,0.0,-0.0136135681656,0.282219740047,0.150011049209,0.000169,0.0,0.0,0.0,0.000169,0.0,0.0,0.0,0.000169,0.51012,-0.16677,10.07487,0.006889,0.0,0.0,0.0,0.006889,0.0,0.0,0.0,0.006889
1421851136841739893,83312,1421851136841739893,fcu,-0.0254015953266,-0.00991677131691,-0.734635138658,0.677914175726,0.0,0.0,0.0,0.0,0.0,0.0,0.0,0.0,0.0,-0.12252211349,-0.105243353895,-0.071733032257,0.000169,0.0,0.0,0.0,0.000169,0.0,0.0,0.0,0.000169,0.51012,-0.16677,10.07487,0.006889,0.0,0.0,0.0,0.006889,0.0,0.0,0.0,0.006889
1421851136843739986,83313,1421851136843739986,fcu,-0.0257811465475,-0.0101486195986,-0.734630760804,0.677901160409,0.0,0.0,0.0,0.0,0.0,0.0,0.0,0.0,0.0,-0.10471975512,-0.331176225566,0.0277507351067,0.000169,0.0,0.0,0.0,0.000169,0.0,0.0,0.0,0.000169,0.38259,-0.05886,9.73152,0.006889,0.0,0.0,0.0,0.006889,0.0,0.0,0.0,0.006889
1421851136849741936,83316,1421851136849741936,fcu,-0.0254737295925,-0.0102270091466,-0.7345118935,0.67804039385,0.0,0.0,0.0,0.0,0.0,0.0,0.0,0.0,0.0,-0.0395317075577,0.330914426178,0.10707594961,0.000169,0.0,0.0,0.0,0.000169,0.0,0.0,0.0,0.000169,0.3924,-0.20601,10.0062,0.006889,0.0,0.0,0.0,0.006889,0.0,0.0,0.0,0.006889
1421851136851742029,83317,1421851136851742029,fcu,-0.0254096609316,-0.0101678067737,-0.734512956714,0.678042536465,0.0,0.0,0.0,0.0,0.0,0.0,0.0,0.0,0.0,-0.00706858347058,0.0502654824574,-0.0246091424531,0.000169,0.0,0.0,0.0,0.000169,0.0,0.0,0.0,0.000169,0.48069,-0.15696,10.02582,0.006889,0.0,0.0,0.0,0.006889,0.0,0.0,0.0,0.006889
1421851136853744030,83318,1421851136853744030,fcu,-0.025661933162,-0.0102790761642,-0.734569817121,0.677969755634,0.0,0.0,0.0,0.0,0.0,0.0,0.0,0.0,0.0,-0.148440252882,-0.228289066161,-0.107861347773,0.000169,0.0,0.0,0.0,0.000169,0.0,0.0,0.0,0.000169,0.48069,-0.15696,10.02582,0.006889,0.0,0.0,0.0,0.006889,0.0,0.0,0.0,0.006889
1421851136855743885,83319,1421851136855743885,fcu,-0.025661933162,-0.0102790761642,-0.734569817121,0.677969755634,0.0,0.0,0.0,0.0,0.0,0.0,0.0,0.0,0.0,-0.0803724120543,-0.261799387799,-0.05471607205,0.000169,0.0,0.0,0.0,0.000169,0.0,0.0,0.0,0.000169,0.36297,-0.08829,9.77076,0.006889,0.0,0.0,0.0,0.006889,0.0,0.0,0.0,0.006889
1421851136857743979,83320,1421851136857743979,fcu,-0.0257251039346,-0.0103405177831,-0.734509575473,0.678031692665,0.0,0.0,0.0,0.0,0.0,0.0,0.0,0.0,0.0,-0.128281700022,0.120951317163,0.0900589894029,0.000169,0.0,0.0,0.0,0.000169,0.0,0.0,0.0,0.000169,0.36297,-0.08829,9.77076,0.006889,0.0,0.0,0.0,0.006889,0.0,0.0,0.0,0.006889
1421851136859745979,83321,1421851136859745979,fcu,-0.0254786279631,-0.0103503095637,-0.734509924254,0.678040472082,0.0,0.0,0.0,0.0,0.0,0.0,0.0,0.0,0.0,0.32358404332,0.232739655753,0.0251327412287,0.000169,0.0,0.0,0.0,0.000169,0.0,0.0,0.0,0.000169,0.36297,-0.08829,9.77076,0.006889,0.0,0.0,0.0,0.006889,0.0,0.0,0.0,0.006889
1421851136861745834,83322,1421851136861745834,fcu,-0.0252904212058,-0.0102982103579,-0.734451997353,0.67811105657,0.0,0.0,0.0,0.0,0.0,0.0,0.0,0.0,0.0,0.00942477796077,0.147654854719,0.0549778714378,0.000169,0.0,0.0,0.0,0.000169,0.0,0.0,0.0,0.000169,0.47088,-0.23544,10.12392,0.006889,0.0,0.0,0.0,0.006889,0.0,0.0,0.0,0.006889
1421851136865747929,83324,1421851136865747929,fcu,-0.0254194576726,-0.010414407607,-0.734509018222,0.67804269293,0.0,0.0,0.0,0.0,0.0,0.0,0.0,0.0,0.0,-0.0654498469498,-0.150534647985,-0.0390081087821,0.000169,0.0,0.0,0.0,0.000169,0.0,0.0,0.0,0.000169,0.35316,-0.07848,9.72171,0.006889,0.0,0.0,0.0,0.006889,0.0,0.0,0.0,0.006889
1421851136867748022,83325,1421851136867748022,fcu,-0.0255417879246,-0.0104117406675,-0.734449671884,0.678102420137,0.0,0.0,0.0,0.0,0.0,0.0,0.0,0.0,0.0,0.112835536141,-0.0125663706144,0.0753982236862,0.000169,0.0,0.0,0.0,0.000169,0.0,0.0,0.0,0.000169,0.35316,-0.07848,9.72171,0.006889,0.0,0.0,0.0,0.006889,0.0,0.0,0.0,0.006889
1421851136869747877,83326,1421851136869747877,fcu,-0.0254234363372,-0.0105399261579,-0.734447843506,0.678106867692,0.0,0.0,0.0,0.0,0.0,0.0,0.0,0.0,0.0,0.259181393921,0.0374373124553,0.0447676953137,0.000169,0.0,0.0,0.0,0.000169,0.0,0.0,0.0,0.000169,0.40221,-0.20601,9.95715,0.006889,0.0,0.0,0.0,0.006889,0.0,0.0,0.0,0.006889
1421851136871749878,83327,1421851136871749878,fcu,-0.0253001963994,-0.0105448113541,-0.734448015808,0.678111214397,0.0,0.0,0.0,0.0,0.0,0.0,0.0,0.0,0.0,0.0405789051089,0.0929387826687,0.0282743338823,0.000169,0.0,0.0,0.0,0.000169,0.0,0.0,0.0,0.000169,0.40221,-0.20601,9.95715,0.006889,0.0,0.0,0.0,0.006889,0.0,0.0,0.0,0.006889
1421851136873749971,83328,1421851136873749971,fcu,-0.0253001963994,-0.0105448113541,-0.734448015808,0.678111214397,0.0,0.0,0.0,0.0,0.0,0.0,0.0,0.0,0.0,0.0387463093943,-0.0641408500108,-0.0243473430653,0.000169,0.0,0.0,0.0,0.000169,0.0,0.0,0.0,0.000169,0.41202,-0.18639,10.01601,0.006889,0.0,0.0,0.0,0.006889,0.0,0.0,0.0,0.006889
1421851136875749826,83329,1421851136875749826,fcu,-0.0253001963994,-0.0105448113541,-0.734448015808,0.678111214397,0.0,0.0,0.0,0.0,0.0,0.0,0.0,0.0,0.0,-0.0183259571459,-0.014398966329,-0.0154461638801,0.000169,0.0,0.0,0.0,0.000169,0.0,0.0,0.0,0.000169,0.41202,-0.18639,10.01601,0.006889,0.0,0.0,0.0,0.006889,0.0,0.0,0.0,0.006889
1421851136877751827,83330,1421851136877751827,fcu,-0.0252943992648,-0.0104237184222,-0.734390838184,0.67817522533,0.0,0.0,0.0,0.0,0.0,0.0,0.0,0.0,0.0,-0.128805298797,0.0246091424531,0.0458148928649,0.000169,0.0,0.0,0.0,0.000169,0.0,0.0,0.0,0.000169,0.33354,-0.10791,9.77076,0.006889,0.0,0.0,0.0,0.006889,0.0,0.0,0.0,0.006889
1421851136885753870,83334,1421851136885753870,fcu,-0.0252343018858,-0.0104900082212,-0.734330740805,0.678241515129,0.0,0.0,0.0,0.0,0.0,0.0,0.0,0.0,0.0,-0.0219911485751,-0.0659734457254,-0.0322013246993,0.000169,0.0,0.0,0.0,0.000169,0.0,0.0,0.0,0.000169,0.37278,-0.17658,9.95715,0.006889,0.0,0.0,0.0,0.006889,0.0,0.0,0.0,0.006889
1421851136887753963,83335,1421851136887753963,fcu,-0.0251061938867,-0.0103715706029,-0.734332901862,0.678245751034,0.0,0.0,0.0,0.0,0.0,0.0,0.0,0.0,0.0,-0.0761836218496,0.125663706144,0.0356047167407,0.000169,0.0,0.0,0.0,0.000169,0.0,0.0,0.0,0.000169,0.37278,-0.17658,9.95715,0.006889,0.0,0.0,0.0,0.006889,0.0,0.0,0.0,0.006889
1421851136893755913,83338,1421851136893755913,fcu,-0.0251110599635,-0.0104948719527,-0.734330911075,0.6782458296,0.0,0.0,0.0,0.0,0.0,0.0,0.0,0.0,0.0,0.131685092063,-0.069115038379,0.00890117918517,0.000169,0.0,0.0,0.0,0.000169,0.0,0.0,0.0,0.000169,0.38259,-0.23544,10.12392,0.006889,0.0,0.0,0.0,0.006889,0.0,0.0,0.0,0.006889
1421851136895757914,83339,1421851136895757914,fcu,-0.0251110599635,-0.0104948719527,-0.734330911075,0.6782458296,0.0,0.0,0.0,0.0,0.0,0.0,0.0,0.0,0.0,-0.0363901149041,-0.0963421747101,0.0167551608191,0.000169,0.0,0.0,0.0,0.000169,0.0,0.0,0.0,0.000169,0.38259,-0.23544,10.12392,0.006889,0.0,0.0,0.0,0.006889,0.0,0.0,0.0,0.006889
1421851136899757862,83341,1421851136899757862,fcu,-0.0250460949058,-0.0104378389219,-0.734272802881,0.678312019353,0.0,0.0,0.0,0.0,0.0,0.0,0.0,0.0,0.0,-0.0382227106187,0.145036860841,0.0327249234749,0.000169,0.0,0.0,0.0,0.000169,0.0,0.0,0.0,0.000169,0.38259,-0.16677,9.98658,0.006889,0.0,0.0,0.0,0.006889,0.0,0.0,0.0,0.006889
1421851136901759863,83342,1421851136901759863,fcu,-0.0251052887009,-0.0103737614922,-0.734273710958,0.678309831086,0.0,0.0,0.0,0.0,0.0,0.0,0.0,0.0,0.0,-0.0630936524596,-0.0887499924639,0.00837758040957,0.000169,0.0,0.0,0.0,0.000169,0.0,0.0,0.0,0.000169,0.38259,-0.16677,9.98658,0.006889,0.0,0.0,0.0,0.006889,0.0,0.0,0.0,0.006889
1421851136903759956,83343,1421851136903759956,fcu,-0.0251693376282,-0.0104329859306,-0.734272633411,0.678307715622,0.0,0.0,0.0,0.0,0.0,0.0,0.0,0.0,0.0,-0.0536688744988,-0.0759218224618,-0.0138753675534,0.000169,0.0,0.0,0.0,0.000169,0.0,0.0,0.0,0.000169,0.35316,-0.15696,10.06506,0.006889,0.0,0.0,0.0,0.006889,0.0,0.0,0.0,0.006889
1421851136905760050,83344,1421851136905760050,fcu,-0.025174192938,-0.0105562875303,-0.734270631857,0.678307794438,0.0,0.0,0.0,0.0,0.0,0.0,0.0,0.0,0.0,0.146607657168,-0.0955567765467,0.0371755130675,0.000169,0.0,0.0,0.0,0.000169,0.0,0.0,0.0,0.000169,0.35316,-0.15696,10.06506,0.006889,0.0,0.0,0.0,0.006889,0.0,0.0,0.0,0.006889
1421851136907762051,83345,1421851136907762051,fcu,-0.0250500284869,-0.0105633265892,-0.734211604634,0.678376172801,0.0,0.0,0.0,0.0,0.0,0.0,0.0,0.0,0.0,0.0568104671524,0.140062672473,0.0568104671524,0.000169,0.0,0.0,0.0,0.000169,0.0,0.0,0.0,0.000169,0.40221,-0.1962,10.08468,0.006889,0.0,0.0,0.0,0.006889,0.0,0.0,0.0,0.006889
1421851136911761999,83347,1421851136911761999,fcu,-0.0247938508391,-0.0103264067568,-0.734215921888,0.678384559324,0.0,0.0,0.0,0.0,0.0,0.0,0.0,0.0,0.0,-0.00392699081699,0.115191730632,-0.00942477796077,0.000169,0.0,0.0,0.0,0.000169,0.0,0.0,0.0,0.000169,0.42183,-0.11772,9.93753,0.006889,0.0,0.0,0.0,0.006889,0.0,0.0,0.0,0.006889
1421851136913764000,83348,1421851136913764000,fcu,-0.0249859843598,-0.0105040967507,-0.734212692335,0.678378277181,0.0,0.0,0.0,0.0,0.0,0.0,0.0,0.0,0.0,-0.0311541271481,-0.152890842475,-0.0358665161285,0.000169,0.0,0.0,0.0,0.000169,0.0,0.0,0.0,0.000169,0.42183,-0.11772,9.93753,0.006889,0.0,0.0,0.0,0.006889,0.0,0.0,0.0,0.006889
1421851136915763855,83349,1421851136915763855,fcu,-0.0249859843598,-0.0105040967507,-0.734212692335,0.678378277181,0.0,0.0,0.0,0.0,0.0,0.0,0.0,0.0,0.0,-0.0259181393921,-0.0921533845053,-0.0426733002113,0.000169,0.0,0.0,0.0,0.000169,0.0,0.0,0.0,0.000169,0.3924,-0.14715,10.04544,0.006889,0.0,0.0,0.0,0.006889,0.0,0.0,0.0,0.006889
1421851136917763948,83350,1421851136917763948,fcu,-0.0249267845922,-0.010568168855,-0.734211772884,0.678380455037,0.0,0.0,0.0,0.0,0.0,0.0,0.0,0.0,0.0,-0.0484328867428,0.0685914396034,0.0426733002113,0.000169,0.0,0.0,0.0,0.000169,0.0,0.0,0.0,0.000169,0.3924,-0.14715,10.04544,0.006889,0.0,0.0,0.0,0.006889,0.0,0.0,0.0,0.006889
1421851136921766043,83352,1421851136921766043,fcu,-0.0246104975159,-0.0103974691931,-0.734155980506,0.678455018651,0.0,0.0,0.0,0.0,0.0,0.0,0.0,0.0,0.0,0.0856083998103,0.27829274923,0.0725184304204,0.000169,0.0,0.0,0.0,0.000169,0.0,0.0,0.0,0.000169,0.44145,-0.15696,10.07487,0.006889,0.0,0.0,0.0,0.006889,0.0,0.0,0.0,0.006889
1421851136923765898,83353,1421851136923765898,fcu,-0.0244815196914,-0.0102811342952,-0.734098905192,0.678523213212,0.0,0.0,0.0,0.0,0.0,0.0,0.0,0.0,0.0,-0.0466002910282,-0.050789081233,0.0115191730632,0.000169,0.0,0.0,0.0,0.000169,0.0,0.0,0.0,0.000169,0.44145,-0.15696,10.07487,0.006889,0.0,0.0,0.0,0.006889,0.0,0.0,0.0,0.006889
1421851136925767899,83354,1421851136925767899,fcu,-0.0246047670222,-0.0102763134382,-0.734098740635,0.678519006234,0.0,0.0,0.0,0.0,0.0,0.0,0.0,0.0,0.0,-0.123569311041,-0.103934356956,0.00418879020479,0.000169,0.0,0.0,0.0,0.000169,0.0,0.0,0.0,0.000169,0.40221,-0.0981,9.96696,0.006889,0.0,0.0,0.0,0.006889,0.0,0.0,0.0,0.006889
1421851136927767992,83355,1421851136927767992,fcu,-0.0246095900719,-0.0103996168245,-0.734096771341,0.678519083263,0.0,0.0,0.0,0.0,0.0,0.0,0.0,0.0,0.0,0.179332580642,-0.048171087355,-0.0178023583703,0.000169,0.0,0.0,0.0,0.000169,0.0,0.0,0.0,0.000169,0.40221,-0.0981,9.96696,0.006889,0.0,0.0,0.0,0.006889,0.0,0.0,0.0,0.006889
1421851136939771891,83361,1421851136939771891,fcu,-0.0242924505251,-0.0102309538011,-0.733981690117,0.678657559454,0.0,0.0,0.0,0.0,0.0,0.0,0.0,0.0,0.0,0.124616508592,-0.155508836353,-0.0170169602069,0.000169,0.0,0.0,0.0,0.000169,0.0,0.0,0.0,0.000169,0.35316,-0.12753,9.98658,0.006889,0.0,0.0,0.0,0.006889,0.0,0.0,0.0,0.006889
1421851136941771984,83362,1421851136941771984,fcu,-0.0242963483888,-0.0103563784946,-0.733920504725,0.678721684952,0.0,0.0,0.0,0.0,0.0,0.0,0.0,0.0,0.0,0.0515744793964,-0.0900589894029,0.0840376034835,0.000169,0.0,0.0,0.0,0.000169,0.0,0.0,0.0,0.000169,0.35316,-0.12753,9.98658,0.006889,0.0,0.0,0.0,0.006889,0.0,0.0,0.0,0.006889
1421851136943773985,83363,1421851136943773985,fcu,-0.0239840263934,-0.0103108839953,-0.733803416283,0.678860072769,0.0,0.0,0.0,0.0,0.0,0.0,0.0,0.0,0.0,0.120951317163,0.2295980631,0.143466064514,0.000169,0.0,0.0,0.0,0.000169,0.0,0.0,0.0,0.000169,0.35316,-0.12753,9.98658,0.006889,0.0,0.0,0.0,0.006889,0.0,0.0,0.0,0.006889
1421851136945773840,83364,1421851136945773840,fcu,-0.0238560040853,-0.0101923453943,-0.73380552265,0.678864096924,0.0,0.0,0.0,0.0,0.0,0.0,0.0,0.0,0.0,0.00733038285838,0.23666664657,0.0222529479629,0.000169,0.0,0.0,0.0,0.000169,0.0,0.0,0.0,0.000169,0.47088,-0.10791,10.08468,0.006889,0.0,0.0,0.0,0.006889,0.0,0.0,0.0,0.006889
1421851136953775883,83368,1421851136953775883,fcu,-0.0243002245335,-0.0104818036016,-0.73385929221,0.678785805773,0.0,0.0,0.0,0.0,0.0,0.0,0.0,0.0,0.0,-0.00863937979737,0.0890117918517,0.103410758181,0.000169,0.0,0.0,0.0,0.000169,0.0,0.0,0.0,0.000169,0.35316,-0.07848,9.95715,0.006889,0.0,0.0,0.0,0.006889,0.0,0.0,0.0,0.006889
1421851136955777884,83369,1421851136955777884,fcu,-0.0240423737215,-0.0102489456596,-0.733745068955,0.678922011105,0.0,0.0,0.0,0.0,0.0,0.0,0.0,0.0,0.0,0.00497418836818,0.337983009649,0.12723450247,0.000169,0.0,0.0,0.0,0.000169,0.0,0.0,0.0,0.000169,0.47088,-0.14715,10.18278,0.006889,0.0,0.0,0.0,0.006889,0.0,0.0,0.0,0.006889
1421851136961779833,83372,1421851136961779833,fcu,-0.0243490119539,-0.0101732766815,-0.733804883412,0.678847569885,0.0,0.0,0.0,0.0,0.0,0.0,0.0,0.0,0.0,0.0788016157275,-0.257610597594,-0.0879645943005,0.000169,0.0,0.0,0.0,0.000169,0.0,0.0,0.0,0.000169,0.40221,-0.06867,9.87867,0.006889,0.0,0.0,0.0,0.006889,0.0,0.0,0.0,0.006889
1421851136963779926,83373,1421851136963779926,fcu,-0.024358550463,-0.0104198879815,-0.73380096628,0.678847721393,0.0,0.0,0.0,0.0,0.0,0.0,0.0,0.0,0.0,0.189280957379,-0.139539073697,0.0259181393921,0.000169,0.0,0.0,0.0,0.000169,0.0,0.0,0.0,0.000169,0.40221,-0.13734,10.09449,0.006889,0.0,0.0,0.0,0.006889,0.0,0.0,0.0,0.006889
1421851136971781969,83377,1421851136971781969,fcu,-0.024036731494,-0.0101277368926,-0.733687756097,0.678985965273,0.0,0.0,0.0,0.0,0.0,0.0,0.0,0.0,0.0,-0.149225651046,-0.353690972917,-0.0853466004225,0.000169,0.0,0.0,0.0,0.000169,0.0,0.0,0.0,0.000169,0.41202,-0.08829,9.94734,0.006889,0.0,0.0,0.0,0.006889,0.0,0.0,0.0,0.006889
1421851136973783970,83378,1421851136973783970,fcu,-0.0240518906965,-0.0104955574483,-0.733741130289,0.678922163102,0.0,0.0,0.0,0.0,0.0,0.0,0.0,0.0,0.0,0.322798645156,-0.117547925122,-0.0185877565337,0.000169,0.0,0.0,0.0,0.000169,0.0,0.0,0.0,0.000169,0.35316,-0.11772,9.99639,0.006889,0.0,0.0,0.0,0.006889,0.0,0.0,0.0,0.006889
1421851136977783918,83380,1421851136977783918,fcu,-0.0232370528348,-0.0102222657018,-0.733628546345,0.67907635848,0.0,0.0,0.0,0.0,0.0,0.0,0.0,0.0,0.0,0.205512519422,0.438775773951,0.152367243699,0.000169,0.0,0.0,0.0,0.000169,0.0,0.0,0.0,0.000169,0.35316,-0.11772,9.99639,0.006889,0.0,0.0,0.0,0.006889,0.0,0.0,0.0,0.006889
1421851136979785919,83381,1421851136979785919,fcu,-0.0231090573259,-0.0101036934129,-0.733630625179,0.679080254939,0.0,0.0,0.0,0.0,0.0,0.0,0.0,0.0,0.0,-0.00471238898038,0.349240383324,0.0596902604182,0.000169,0.0,0.0,0.0,0.000169,0.0,0.0,0.0,0.000169,0.50031,-0.11772,9.94734,0.006889,0.0,0.0,0.0,0.006889,0.0,0.0,0.0,0.006889
1421851136981786013,83382,1421851136981786013,fcu,-0.0232915763388,-0.0100349369238,-0.733631351156,0.679074254491,0.0,0.0,0.0,0.0,0.0,0.0,0.0,0.0,0.0,-0.175929188601,-0.231692458202,-0.0476474885794,0.000169,0.0,0.0,0.0,0.000169,0.0,0.0,0.0,0.000169,0.50031,-0.11772,9.94734,0.006889,0.0,0.0,0.0,0.006889,0.0,0.0,0.0,0.006889
1421851136983785868,83383,1421851136983785868,fcu,-0.0237940759962,-0.0102626115938,-0.733626878512,0.679058262504,0.0,0.0,0.0,0.0,0.0,0.0,0.0,0.0,0.0,-0.0238237442897,-0.223838476568,0.0167551608191,0.000169,0.0,0.0,0.0,0.000169,0.0,0.0,0.0,0.000169,0.35316,-0.02943,9.78057,0.006889,0.0,0.0,0.0,0.006889,0.0,0.0,0.0,0.006889
1421851136985787868,83384,1421851136985787868,fcu,-0.0237395538597,-0.0104499393006,-0.73362401079,0.679060411998,0.0,0.0,0.0,0.0,0.0,0.0,0.0,0.0,0.0,0.286146730864,-0.13325588839,0.00157079632679,0.000169,0.0,0.0,0.0,0.000169,0.0,0.0,0.0,0.000169,0.35316,-0.02943,9.78057,0.006889,0.0,0.0,0.0,0.006889,0.0,0.0,0.0,0.006889
1421851136989787817,83386,1421851136989787817,fcu,-0.0229887489862,-0.0102357484069,-0.733510316839,0.679212309933,0.0,0.0,0.0,0.0,0.0,0.0,0.0,0.0,0.0,0.152105444311,0.387724893331,0.0842994028713,0.000169,0.0,0.0,0.0,0.000169,0.0,0.0,0.0,0.000169,0.40221,-0.17658,10.16316,0.006889,0.0,0.0,0.0,0.006889,0.0,0.0,0.0,0.006889
1421851136991789818,83387,1421851136991789818,fcu,-0.0229247609782,-0.0101764511588,-0.733511357887,0.679214239417,0.0,0.0,0.0,0.0,0.0,0.0,0.0,0.0,0.0,-0.0235619449019,0.100792764303,-0.0212057504117,0.000169,0.0,0.0,0.0,0.000169,0.0,0.0,0.0,0.000169,0.46107,-0.0981,9.83943,0.006889,0.0,0.0,0.0,0.006889,0.0,0.0,0.0,0.006889
1421851137003793955,83393,1421851137003793955,fcu,-0.0229878556611,-0.0102377545147,-0.733451041591,0.679276318197,0.0,0.0,0.0,0.0,0.0,0.0,0.0,0.0,0.0,-0.248971217797,-0.149487450433,0.0248709418409,0.000169,0.0,0.0,0.0,0.000169,0.0,0.0,0.0,0.000169,0.47088,-0.22563,10.03563,0.006889,0.0,0.0,0.0,0.006889,0.0,0.0,0.0,0.006889
1421851137005794048,83394,1421851137005794048,fcu,-0.0231111161039,-0.010233051643,-0.733450890921,0.679272369211,0.0,0.0,0.0,0.0,0.0,0.0,0.0,0.0,0.0,-0.279601746169,-0.0769690200129,0.0539306738866,0.000169,0.0,0.0,0.0,0.000169,0.0,0.0,0.0,0.000169,0.40221,-0.05886,9.69228,0.006889,0.0,0.0,0.0,0.006889,0.0,0.0,0.0,0.006889
1421851137007793903,83395,1421851137007793903,fcu,-0.0229285775323,-0.0103017601536,-0.733450145385,0.67927832168,0.0,0.0,0.0,0.0,0.0,0.0,0.0,0.0,0.0,0.115977128795,-0.0322013246993,0.00994837673637,0.000169,0.0,0.0,0.0,0.000169,0.0,0.0,0.0,0.000169,0.40221,-0.05886,9.69228,0.006889,0.0,0.0,0.0,0.006889,0.0,0.0,0.0,0.006889
1421851137013795853,83398,1421851137013795853,fcu,-0.0225587910737,-0.0103158689646,-0.733450591238,0.679290007291,0.0,0.0,0.0,0.0,0.0,0.0,0.0,0.0,0.0,-0.0897971900151,-0.061261056745,0.0175405589825,0.000169,0.0,0.0,0.0,0.000169,0.0,0.0,0.0,0.000169,0.50031,-0.16677,9.85905,0.006889,0.0,0.0,0.0,0.006889,0.0,0.0,0.0,0.006889
1421851137015797853,83399,1421851137015797853,fcu,-0.0227413327173,-0.0102471603368,-0.733451340467,0.679284151632,0.0,0.0,0.0,0.0,0.0,0.0,0.0,0.0,0.0,-0.272794962087,-0.0431968989869,0.0358665161285,0.000169,0.0,0.0,0.0,0.000169,0.0,0.0,0.0,0.000169,0.50031,-0.16677,9.85905,0.006889,0.0,0.0,0.0,0.006889,0.0,0.0,0.0,0.006889
1421851137021800041,83402,1421851137021800041,fcu,-0.022686758597,-0.0104344741324,-0.733448484835,0.679286208329,0.0,0.0,0.0,0.0,0.0,0.0,0.0,0.0,0.0,0.295309709437,-0.110479341651,-0.0604756585816,0.000169,0.0,0.0,0.0,0.000169,0.0,0.0,0.0,0.000169,0.43164,-0.07848,9.99639,0.006889,0.0,0.0,0.0,0.006889,0.0,0.0,0.0,0.006889
1421851137023799896,83403,1421851137023799896,fcu,-0.0225042164366,-0.0105031825232,-0.733447718849,0.67929204847,0.0,0.0,0.0,0.0,0.0,0.0,0.0,0.0,0.0,0.13796827737,0.176976386152,0.00418879020479,0.000169,0.0,0.0,0.0,0.000169,0.0,0.0,0.0,0.000169,0.52974,-0.23544,10.07487,0.006889,0.0,0.0,0.0,0.006889,0.0,0.0,0.0,0.006889
1421851137027801991,83405,1421851137027801991,fcu,-0.0226811540004,-0.010313145345,-0.73339116175,0.67935013664,0.0,0.0,0.0,0.0,0.0,0.0,0.0,0.0,0.0,-0.262322986575,-0.0301069295969,0.059952059806,0.000169,0.0,0.0,0.0,0.000169,0.0,0.0,0.0,0.000169,0.47088,-0.00981,9.70209,0.006889,0.0,0.0,0.0,0.006889,0.0,0.0,0.0,0.006889
1421851137029801846,83406,1421851137029801846,fcu,-0.0228044165645,-0.0103084531646,-0.733391013473,0.679346241423,0.0,0.0,0.0,0.0,0.0,0.0,0.0,0.0,0.0,-0.191375352481,-0.112050137978,0.0492182849062,0.000169,0.0,0.0,0.0,0.000169,0.0,0.0,0.0,0.000169,0.47088,-0.00981,9.70209,0.006889,0.0,0.0,0.0,0.006889,0.0,0.0,0.0,0.006889
1421851137035804033,83409,1421851137035804033,fcu,-0.0225117492298,-0.0107537266066,-0.733325145528,0.679420200942,0.0,0.0,0.0,0.0,0.0,0.0,0.0,0.0,0.0,0.0979129710369,0.170431401457,0.0615228561328,0.000169,0.0,0.0,0.0,0.000169,0.0,0.0,0.0,0.000169,0.4905,-0.1962,9.99639,0.006889,0.0,0.0,0.0,0.006889,0.0,0.0,0.0,0.006889
1421851137037803888,83410,1421851137037803888,fcu,-0.0225014659387,-0.0105090737533,-0.733269855474,0.679484041352,0.0,0.0,0.0,0.0,0.0,0.0,0.0,0.0,0.0,-0.275674755353,0.142418866963,0.0369137136797,0.000169,0.0,0.0,0.0,0.000169,0.0,0.0,0.0,0.000169,0.4905,-0.1962,9.99639,0.006889,0.0,0.0,0.0,0.006889,0.0,0.0,0.0,0.006889
1421851137045807838,83414,1421851137045807838,fcu,-0.022638747464,-0.0108743285197,-0.733263671813,0.679480407144,0.0,0.0,0.0,0.0,0.0,0.0,0.0,0.0,0.0,0.207868713913,0.0342957198017,0.00602138591938,0.000169,0.0,0.0,0.0,0.000169,0.0,0.0,0.0,0.000169,0.47088,-0.18639,10.07487,0.006889,0.0,0.0,0.0,0.006889,0.0,0.0,0.0,0.006889
1421851137048807859,83415,1421851137048807859,fcu,-0.0224505701562,-0.0108216397854,-0.733205611589,0.679550141745,0.0,0.0,0.0,0.0,0.0,0.0,0.0,0.0,0.0,0.0733038285838,0.2188642882,0.131423292675,0.000169,0.0,0.0,0.0,0.000169,0.0,0.0,0.0,0.000169,0.47088,-0.18639,10.07487,0.006889,0.0,0.0,0.0,0.006889,0.0,0.0,0.0,0.006889
1421851137055809975,83419,1421851137055809975,fcu,-0.0228899465746,-0.0109882949677,-0.733261321146,0.679472694544,0.0,0.0,0.0,0.0,0.0,0.0,0.0,0.0,0.0,0.363115750877,-0.208654112076,-0.0151843644924,0.000169,0.0,0.0,0.0,0.000169,0.0,0.0,0.0,0.000169,0.43164,-0.02943,9.97677,0.006889,0.0,0.0,0.0,0.006889,0.0,0.0,0.0,0.006889
1421851137057811975,83420,1421851137057811975,fcu,-0.0226424600023,-0.0109996122709,-0.733202317691,0.679544471589,0.0,0.0,0.0,0.0,0.0,0.0,0.0,0.0,0.0,0.0549778714378,0.305519885562,0.0578576647036,0.000169,0.0,0.0,0.0,0.000169,0.0,0.0,0.0,0.000169,0.47088,-0.20601,10.05525,0.006889,0.0,0.0,0.0,0.006889,0.0,0.0,0.0,0.006889
1421851137059811831,83421,1421851137059811831,fcu,-0.0224496257044,-0.0108235989261,-0.733146306861,0.679614123418,0.0,0.0,0.0,0.0,0.0,0.0,0.0,0.0,0.0,0.000785398163397,0.263108384738,0.172263997172,0.000169,0.0,0.0,0.0,0.000169,0.0,0.0,0.0,0.000169,0.47088,-0.20601,10.05525,0.006889,0.0,0.0,0.0,0.006889,0.0,0.0,0.0,0.006889
1421851137061811924,83422,1421851137061811924,fcu,-0.0224394008938,-0.0105789385635,-0.733091021446,0.679677948459,0.0,0.0,0.0,0.0,0.0,0.0,0.0,0.0,0.0,-0.271747764536,0.333794219444,0.101839961854,0.000169,0.0,0.0,0.0,0.000169,0.0,0.0,0.0,0.000169,0.47088,-0.20601,10.05525,0.006889,0.0,0.0,0.0,0.006889,0.0,0.0,0.0,0.006889
1421851137063813925,83423,1421851137063813925,fcu,-0.0228101186083,-0.0105630327794,-0.733149893426,0.679602350347,0.0,0.0,0.0,0.0,0.0,0.0,0.0,0.0,0.0,-0.147654854719,-0.185353966562,-0.139015474921,0.000169,0.0,0.0,0.0,0.000169,0.0,0.0,0.0,0.000169,0.40221,-0.00981,9.81981,0.006889,0.0,0.0,0.0,0.006889,0.0,0.0,0.0,0.006889
1421851137065814018,83424,1421851137065814018,fcu,-0.0227564009391,-0.0107483356127,-0.733206260275,0.679540432492,0.0,0.0,0.0,0.0,0.0,0.0,0.0,0.0,0.0,0.183783170235,-0.16179202166,-0.132208690839,0.000169,0.0,0.0,0.0,0.000169,0.0,0.0,0.0,0.000169,0.40221,-0.00981,9.81981,0.006889,0.0,0.0,0.0,0.006889,0.0,0.0,0.0,0.006889
1421851137067813873,83425,1421851137067813873,fcu,-0.0227064229402,-0.0110589362657,-0.733201208558,0.679542571187,0.0,0.0,0.0,0.0,0.0,0.0,0.0,0.0,0.0,0.272794962087,-0.163101018599,-0.0392699081699,0.000169,0.0,0.0,0.0,0.000169,0.0,0.0,0.0,0.000169,0.43164,-0.21582,9.98658,0.006889,0.0,0.0,0.0,0.006889,0.0,0.0,0.0,0.006889
1421851137068815947,83426,1421851137068815947,fcu,-0.0225784968921,-0.0109402881922,-0.733203421241,0.679546366816,0.0,0.0,0.0,0.0,0.0,0.0,0.0,0.0,0.0,0.0515744793964,0.27358036025,0.0788016157275,0.000169,0.0,0.0,0.0,0.000169,0.0,0.0,0.0,0.000169,0.43164,-0.21582,9.98658,0.006889,0.0,0.0,0.0,0.006889,0.0,0.0,0.0,0.006889
1421851137070816040,83427,1421851137070816040,fcu,-0.0223847278122,-0.0107662224942,-0.733088083019,0.679679979806,0.0,0.0,0.0,0.0,0.0,0.0,0.0,0.0,0.0,-0.133779487165,0.315730061686,0.129328897573,0.000169,0.0,0.0,0.0,0.000169,0.0,0.0,0.0,0.000169,0.43164,-0.21582,9.98658,0.006889,0.0,0.0,0.0,0.006889,0.0,0.0,0.0,0.006889
1421851137072815895,83428,1421851137072815895,fcu,-0.0224394008938,-0.0105789385635,-0.733091021446,0.679677948459,0.0,0.0,0.0,0.0,0.0,0.0,0.0,0.0,0.0,-0.128281700022,0.00157079632679,0.00916297857297,0.000169,0.0,0.0,0.0,0.000169,0.0,0.0,0.0,0.000169,0.47088,-0.03924,9.88848,0.006889,0.0,0.0,0.0,0.006889,0.0,0.0,0.0,0.006889
1421851137074817896,83429,1421851137074817896,fcu,-0.0226266196209,-0.0106336358886,-0.733089805551,0.679672199571,0.0,0.0,0.0,0.0,0.0,0.0,0.0,0.0,0.0,-0.181688775133,-0.244520628204,-0.0780162175641,0.000169,0.0,0.0,0.0,0.000169,0.0,0.0,0.0,0.000169,0.47088,-0.03924,9.88848,0.006889,0.0,0.0,0.0,0.006889,0.0,0.0,0.0,0.006889
1421851137082819939,83433,1421851137082819939,fcu,-0.0220686745455,-0.010594779952,-0.733032134586,0.679753347845,0.0,0.0,0.0,0.0,0.0,0.0,0.0,0.0,0.0,-0.167289808804,0.237190245346,0.0159697626557,0.000169,0.0,0.0,0.0,0.000169,0.0,0.0,0.0,0.000169,0.48069,-0.18639,9.97677,0.006889,0.0,0.0,0.0,0.006889,0.0,0.0,0.0,0.006889
1421851137084820032,83434,1421851137084820032,fcu,-0.0220686745455,-0.010594779952,-0.733032134586,0.679753347845,0.0,0.0,0.0,0.0,0.0,0.0,0.0,0.0,0.0,-0.168075206967,0.237190245346,-0.0107337748998,0.000169,0.0,0.0,0.0,0.000169,0.0,0.0,0.0,0.000169,0.48069,-0.18639,9.97677,0.006889,0.0,0.0,0.0,0.006889,0.0,0.0,0.0,0.006889
1421851137088821888,83436,1421851137088821888,fcu,-0.0223856672571,-0.0107642690172,-0.733147393495,0.679616003214,0.0,0.0,0.0,0.0,0.0,0.0,0.0,0.0,0.0,0.33065262679,-0.0484328867428,-0.0253945406165,0.000169,0.0,0.0,0.0,0.000169,0.0,0.0,0.0,0.000169,0.3924,-0.03924,9.81,0.006889,0.0,0.0,0.0,0.006889,0.0,0.0,0.0,0.006889
1421851137090821981,83437,1421851137090821981,fcu,-0.0219509705198,-0.0107208024899,-0.733089591497,0.679693217654,0.0,0.0,0.0,0.0,0.0,0.0,0.0,0.0,0.0,0.105505153283,0.202109127381,0.159174027782,0.000169,0.0,0.0,0.0,0.000169,0.0,0.0,0.0,0.000169,0.3924,-0.23544,9.96696,0.006889,0.0,0.0,0.0,0.006889,0.0,0.0,0.0,0.006889
1421851137098825932,83441,1421851137098825932,fcu,-0.022074239131,-0.0107161639425,-0.733089449777,0.679689451458,0.0,0.0,0.0,0.0,0.0,0.0,0.0,0.0,0.0,0.287979326579,-0.141109870024,-0.0963421747101,0.000169,0.0,0.0,0.0,0.000169,0.0,0.0,0.0,0.000169,0.34335,-0.13734,9.83943,0.006889,0.0,0.0,0.0,0.006889,0.0,0.0,0.0,0.006889
1421851137100826025,83442,1421851137100826025,fcu,-0.0219556106072,-0.0108441120247,-0.733087568288,0.679693293787,0.0,0.0,0.0,0.0,0.0,0.0,0.0,0.0,0.0,0.206036118198,-0.0010471975512,0.0269653369433,0.000169,0.0,0.0,0.0,0.000169,0.0,0.0,0.0,0.000169,0.34335,-0.13734,9.83943,0.006889,0.0,0.0,0.0,0.006889,0.0,0.0,0.0,0.006889
1421851137106827974,83445,1421851137106827974,fcu,-0.022052108834,-0.0102306205898,-0.732860026467,0.679945012854,0.0,0.0,0.0,0.0,0.0,0.0,0.0,0.0,0.0,-0.248447619021,-0.254207205553,-0.112050137978,0.000169,0.0,0.0,0.0,0.000169,0.0,0.0,0.0,0.000169,0.46107,-0.04905,9.89829,0.006889,0.0,0.0,0.0,0.006889,0.0,0.0,0.0,0.006889
1421851137108827829,83446,1421851137108827829,fcu,-0.0221854864026,-0.0104707138058,-0.732915322729,0.679877413991,0.0,0.0,0.0,0.0,0.0,0.0,0.0,0.0,0.0,-0.120165919,-0.274627557801,-0.197134939013,0.000169,0.0,0.0,0.0,0.000169,0.0,0.0,0.0,0.000169,0.46107,-0.04905,9.89829,0.006889,0.0,0.0,0.0,0.006889,0.0,0.0,0.0,0.006889
1421851137110829830,83447,1421851137110829830,fcu,-0.0221919429018,-0.0105901521865,-0.733031992386,0.679749560121,0.0,0.0,0.0,0.0,0.0,0.0,0.0,0.0,0.0,0.225932871671,-0.168337006355,-0.0968657734857,0.000169,0.0,0.0,0.0,0.000169,0.0,0.0,0.0,0.000169,0.42183,-0.16677,9.91791,0.006889,0.0,0.0,0.0,0.006889,0.0,0.0,0.0,0.006889
1421851137114830017,83449,1421851137114830017,fcu,-0.0218202847733,-0.0106078440767,-0.732913764747,0.679888786686,0.0,0.0,0.0,0.0,0.0,0.0,0.0,0.0,0.0,-0.001308996939,0.356308966795,0.169907802682,0.000169,0.0,0.0,0.0,0.000169,0.0,0.0,0.0,0.000169,0.5886,-0.13734,10.09449,0.006889,0.0,0.0,0.0,0.006889,0.0,0.0,0.0,0.006889
1421851137116832018,83450,1421851137116832018,fcu,-0.0216229587439,-0.0103083613175,-0.732859548495,0.679958136595,0.0,0.0,0.0,0.0,0.0,0.0,0.0,0.0,0.0,-0.155508836353,0.287717527191,0.0753982236862,0.000169,0.0,0.0,0.0,0.000169,0.0,0.0,0.0,0.000169,0.5886,-0.13734,10.09449,0.006889,0.0,0.0,0.0,0.006889,0.0,0.0,0.0,0.006889
1421851137120831966,83452,1421851137120831966,fcu,-0.0220530015401,-0.0102286961413,-0.732919360073,0.679881056163,0.0,0.0,0.0,0.0,0.0,0.0,0.0,0.0,0.0,-0.245829625143,-0.275674755353,-0.189019157991,0.000169,0.0,0.0,0.0,0.000169,0.0,0.0,0.0,0.000169,0.44145,-0.01962,9.81,0.006889,0.0,0.0,0.0,0.006889,0.0,0.0,0.0,0.006889
1421851137122833967,83453,1421851137122833967,fcu,-0.0220686745455,-0.010594779952,-0.733032134586,0.679753347845,0.0,0.0,0.0,0.0,0.0,0.0,0.0,0.0,0.0,0.260228591472,-0.052098078172,-0.014398966329,0.000169,0.0,0.0,0.0,0.000169,0.0,0.0,0.0,0.000169,0.44145,-0.01962,9.81,0.006889,0.0,0.0,0.0,0.006889,0.0,0.0,0.0,0.006889
1421851137126833916,83455,1421851137126833916,fcu,-0.021505193987,-0.0104343926381,-0.732917073263,0.679897943666,0.0,0.0,0.0,0.0,0.0,0.0,0.0,0.0,0.0,-0.121736715327,0.374634923941,0.111264739815,0.000169,0.0,0.0,0.0,0.000169,0.0,0.0,0.0,0.000169,0.57879,-0.16677,10.09449,0.006889,0.0,0.0,0.0,0.006889,0.0,0.0,0.0,0.006889
1421851137128835917,83456,1421851137128835917,fcu,-0.0214366459164,-0.0102517277631,-0.732920055705,0.679899672183,0.0,0.0,0.0,0.0,0.0,0.0,0.0,0.0,0.0,-0.164933614313,0.0774926187885,-0.0539306738866,0.000169,0.0,0.0,0.0,0.000169,0.0,0.0,0.0,0.000169,0.57879,-0.16677,10.09449,0.006889,0.0,0.0,0.0,0.006889,0.0,0.0,0.0,0.006889
1421851137134837866,83459,1421851137134837866,fcu,-0.0218165918073,-0.0104826288158,-0.732975073624,0.679824751138,0.0,0.0,0.0,0.0,0.0,0.0,0.0,0.0,0.0,0.266249977392,0.127496301858,-0.00628318530718,0.000169,0.0,0.0,0.0,0.000169,0.0,0.0,0.0,0.000169,0.47088,-0.17658,10.01601,0.006889,0.0,0.0,0.0,0.006889,0.0,0.0,0.0,0.006889
1421851137136837959,83460,1421851137136837959,fcu,-0.0213819212457,-0.0104389990229,-0.73291721038,0.679901613083,0.0,0.0,0.0,0.0,0.0,0.0,0.0,0.0,0.0,0.295833308213,0.170955000233,0.0316777259237,0.000169,0.0,0.0,0.0,0.000169,0.0,0.0,0.0,0.000169,0.47088,-0.17658,10.01601,0.006889,0.0,0.0,0.0,0.006889,0.0,0.0,0.0,0.006889
1421851137146842003,83465,1421851137146842003,fcu,-0.0215255321633,-0.0109238802673,-0.733027719899,0.679770315742,0.0,0.0,0.0,0.0,0.0,0.0,0.0,0.0,0.0,0.370969732511,0.00706858347058,-0.050789081233,0.000169,0.0,0.0,0.0,0.000169,0.0,0.0,0.0,0.000169,0.47088,-0.01962,9.85905,0.006889,0.0,0.0,0.0,0.006889,0.0,0.0,0.0,0.006889
1421851137148841858,83466,1421851137148841858,fcu,-0.0215199602338,-0.010802448517,-0.732970429941,0.679834205708,0.0,0.0,0.0,0.0,0.0,0.0,0.0,0.0,0.0,-0.0803724120543,0.109693943488,0.074351026135,0.000169,0.0,0.0,0.0,0.000169,0.0,0.0,0.0,0.000169,0.55917,-0.15696,10.08468,0.006889,0.0,0.0,0.0,0.006889,0.0,0.0,0.0,0.006889
1421851137154844046,83469,1421851137154844046,fcu,-0.0218851548092,-0.0106652867161,-0.732972025257,0.679822993028,0.0,0.0,0.0,0.0,0.0,0.0,0.0,0.0,0.0,-0.0455530934771,0.063879050623,0.0403171057211,0.000169,0.0,0.0,0.0,0.000169,0.0,0.0,0.0,0.000169,0.48069,0.0,9.83943,0.006889,0.0,0.0,0.0,0.006889,0.0,0.0,0.0,0.006889
1421851137156843901,83470,1421851137156843901,fcu,-0.0217062292677,-0.0108590722431,-0.732909878936,0.679892660292,0.0,0.0,0.0,0.0,0.0,0.0,0.0,0.0,0.0,0.285623132089,0.00287979326579,-0.0392699081699,0.000169,0.0,0.0,0.0,0.000169,0.0,0.0,0.0,0.000169,0.48069,0.0,9.83943,0.006889,0.0,0.0,0.0,0.006889,0.0,0.0,0.0,0.006889
1421851137160845995,83472,1421851137160845995,fcu,-0.0217747765956,-0.011041734529,-0.732906734276,0.679890916291,0.0,0.0,0.0,0.0,0.0,0.0,0.0,0.0,0.0,-0.134564885329,0.0212057504117,0.0308923277603,0.000169,0.0,0.0,0.0,0.000169,0.0,0.0,0.0,0.000169,0.51993,-0.18639,10.01601,0.006889,0.0,0.0,0.0,0.006889,0.0,0.0,0.0,0.006889
1421851137162845850,83473,1421851137162845850,fcu,-0.021838715966,-0.0111010863405,-0.732905628786,0.679889090706,0.0,0.0,0.0,0.0,0.0,0.0,0.0,0.0,0.0,-0.0500036830696,-0.0829904059323,0.0337721210261,0.000169,0.0,0.0,0.0,0.000169,0.0,0.0,0.0,0.000169,0.51993,-0.18639,10.01601,0.006889,0.0,0.0,0.0,0.006889,0.0,0.0,0.0,0.006889
1421851137172849894,83478,1421851137172849894,fcu,-0.0217236695943,-0.0113542074279,-0.732842236157,0.679956925884,0.0,0.0,0.0,0.0,0.0,0.0,0.0,0.0,0.0,0.00733038285838,-0.0162315620435,0.0392699081699,0.000169,0.0,0.0,0.0,0.000169,0.0,0.0,0.0,0.000169,0.52974,-0.14715,9.97677,0.006889,0.0,0.0,0.0,0.006889,0.0,0.0,0.0,0.006889
1421851137174849987,83479,1421851137174849987,fcu,-0.0217876039305,-0.011413564355,-0.732841104124,0.679955106584,0.0,0.0,0.0,0.0,0.0,0.0,0.0,0.0,0.0,0.00418879020479,-0.207606914525,0.0178023583703,0.000169,0.0,0.0,0.0,0.000169,0.0,0.0,0.0,0.000169,0.52974,-0.03924,9.85905,0.006889,0.0,0.0,0.0,0.006889,0.0,0.0,0.0,0.006889
1421851137184854031,83484,1421851137184854031,fcu,-0.0217364372751,-0.0117260312126,-0.732776438812,0.680021116002,0.0,0.0,0.0,0.0,0.0,0.0,0.0,0.0,0.0,-0.0630936524596,-0.0222529479629,0.0175405589825,0.000169,0.0,0.0,0.0,0.000169,0.0,0.0,0.0,0.000169,0.54936,-0.20601,9.87867,0.006889,0.0,0.0,0.0,0.006889,0.0,0.0,0.0,0.006889
1421851137186853886,83485,1421851137186853886,fcu,-0.0216770941551,-0.0117899779756,-0.732775412733,0.680023010274,0.0,0.0,0.0,0.0,0.0,0.0,0.0,0.0,0.0,-0.0282743338823,0.152629043087,0.0418879020479,0.000169,0.0,0.0,0.0,0.000169,0.0,0.0,0.0,0.000169,0.54936,-0.20601,9.87867,0.006889,0.0,0.0,0.0,0.006889,0.0,0.0,0.0,0.006889
1421851137193856001,83488,1421851137193856001,fcu,-0.0216258671202,-0.0121024279538,-0.732710579505,0.680089008726,0.0,0.0,0.0,0.0,0.0,0.0,0.0,0.0,0.0,0.0395317075577,-0.30211649352,-0.05471607205,0.000169,0.0,0.0,0.0,0.000169,0.0,0.0,0.0,0.000169,0.50031,-0.15696,9.87867,0.006889,0.0,0.0,0.0,0.006889,0.0,0.0,0.0,0.006889
1421851137194857836,83489,1421851137194857836,fcu,-0.0216862664734,-0.0120365944095,-0.732770978858,0.680023175182,0.0,0.0,0.0,0.0,0.0,0.0,0.0,0.0,0.0,-0.173572994111,-0.0502654824574,-0.0712094334814,0.000169,0.0,0.0,0.0,0.000169,0.0,0.0,0.0,0.000169,0.50031,-0.15696,9.87867,0.006889,0.0,0.0,0.0,0.006889,0.0,0.0,0.0,0.006889
1421851137196857929,83490,1421851137196857929,fcu,-0.0216816803214,-0.011913286386,-0.732773206556,0.680023092328,0.0,0.0,0.0,0.0,0.0,0.0,0.0,0.0,0.0,-0.0782780169519,0.0374373124553,0.0492182849062,0.000169,0.0,0.0,0.0,0.000169,0.0,0.0,0.0,0.000169,0.46107,-0.13734,10.0062,0.006889,0.0,0.0,0.0,0.006889,0.0,0.0,0.0,0.006889
1421851137198858023,83491,1421851137198858023,fcu,-0.0216806406085,-0.0119151784242,-0.732713860556,0.680087036264,0.0,0.0,0.0,0.0,0.0,0.0,0.0,0.0,0.0,-0.0722566310326,0.147131255943,0.0290597320457,0.000169,0.0,0.0,0.0,0.000169,0.0,0.0,0.0,0.000169,0.46107,-0.13734,10.0062,0.006889,0.0,0.0,0.0,0.006889,0.0,0.0,0.0,0.006889
1421851137200860023,83492,1421851137200860023,fcu,-0.0215573673078,-0.0119197525122,-0.732713997511,0.680090727232,0.0,0.0,0.0,0.0,0.0,0.0,0.0,0.0,0.0,0.158912228394,-0.0340339204139,0.0230383461263,0.000169,0.0,0.0,0.0,0.000169,0.0,0.0,0.0,0.000169,0.4905,-0.06867,9.84924,0.006889,0.0,0.0,0.0,0.006889,0.0,0.0,0.0,0.006889
1421851137202859879,83493,1421851137202859879,fcu,-0.0215025934978,-0.0121070020538,-0.73271071606,0.680092688936,0.0,0.0,0.0,0.0,0.0,0.0,0.0,0.0,0.0,0.235095850244,-0.161530222272,-0.0128281700022,0.000169,0.0,0.0,0.0,0.000169,0.0,0.0,0.0,0.000169,0.4905,-0.06867,9.84924,0.006889,0.0,0.0,0.0,0.006889,0.0,0.0,0.0,0.006889
1421851137204859972,83494,1421851137204859972,fcu,-0.021571093438,-0.0122896766061,-0.732707249831,0.680090977606,0.0,0.0,0.0,0.0,0.0,0.0,0.0,0.0,0.0,0.267297174943,-0.315991861074,-0.00549778714378,0.000169,0.0,0.0,0.0,0.000169,0.0,0.0,0.0,0.000169,0.45126,-0.21582,9.94734,0.006889,0.0,0.0,0.0,0.006889,0.0,0.0,0.0,0.006889
1421851137206861973,83495,1421851137206861973,fcu,-0.0215665180759,-0.012166368968,-0.732709520579,0.68009089335,0.0,0.0,0.0,0.0,0.0,0.0,0.0,0.0,0.0,0.00890117918517,0.16414821615,0.0238237442897,0.000169,0.0,0.0,0.0,0.000169,0.0,0.0,0.0,0.000169,0.45126,-0.21582,9.94734,0.006889,0.0,0.0,0.0,0.006889,0.0,0.0,0.0,0.006889
1421851137208861828,83496,1421851137208861828,fcu,-0.0215025934978,-0.0121070020538,-0.73271071606,0.680092688936,0.0,0.0,0.0,0.0,0.0,0.0,0.0,0.0,0.0,0.11178833859,0.0932005820565,0.0780162175641,0.000169,0.0,0.0,0.0,0.000169,0.0,0.0,0.0,0.000169,0.45126,-0.12753,9.9081,0.006889,0.0,0.0,0.0,0.006889,0.0,0.0,0.0,0.006889
1421851137210861921,83497,1421851137210861921,fcu,-0.0214386687561,-0.0120476350474,-0.732711905962,0.680094479344,0.0,0.0,0.0,0.0,0.0,0.0,0.0,0.0,0.0,-0.0238237442897,0.149749249821,0.00863937979737,0.000169,0.0,0.0,0.0,0.000169,0.0,0.0,0.0,0.000169,0.45126,-0.12753,9.9081,0.006889,0.0,0.0,0.0,0.006889,0.0,0.0,0.0,0.006889
1421851137212863922,83498,1421851137212863922,fcu,-0.0214980181138,-0.0119836938254,-0.732712954526,0.680092605877,0.0,0.0,0.0,0.0,0.0,0.0,0.0,0.0,0.0,-0.102101761242,-0.0267035375555,-0.00497418836818,0.000169,0.0,0.0,0.0,0.000169,0.0,0.0,0.0,0.000169,0.45126,-0.12753,9.9081,0.006889,0.0,0.0,0.0,0.006889,0.0,0.0,0.0,0.006889
1421851137214864016,83499,1421851137214864016,fcu,-0.0214386687561,-0.0120476350474,-0.732711905962,0.680094479344,0.0,0.0,0.0,0.0,0.0,0.0,0.0,0.0,0.0,0.109170344712,0.00497418836818,-0.0201585528605,0.000169,0.0,0.0,0.0,0.000169,0.0,0.0,0.0,0.000169,0.44145,-0.20601,9.85905,0.006889,0.0,0.0,0.0,0.006889,0.0,0.0,0.0,0.006889
1421851137216863871,83500,1421851137216863871,fcu,-0.0215071688673,-0.0122303098896,-0.732708456073,0.680092772794,0.0,0.0,0.0,0.0,0.0,0.0,0.0,0.0,0.0,-0.13325588839,0.0206821516361,0.0162315620435,0.000169,0.0,0.0,0.0,0.000169,0.0,0.0,0.0,0.000169,0.44145,-0.20601,9.85905,0.006889,0.0,0.0,0.0,0.006889,0.0,0.0,0.0,0.006889
1421851137218865871,83501,1421851137218865871,fcu,-0.0214432441328,-0.0121709430799,-0.732709656735,0.680094562802,0.0,0.0,0.0,0.0,0.0,0.0,0.0,0.0,0.0,-0.0636172512352,0.182212373908,0.0311541271481,0.000169,0.0,0.0,0.0,0.000169,0.0,0.0,0.0,0.000169,0.42183,-0.23544,9.93753,0.006889,0.0,0.0,0.0,0.006889,0.0,0.0,0.0,0.006889
1421851137220865965,83502,1421851137220865965,fcu,-0.0213782622192,-0.012113441829,-0.732651499425,0.680160286125,0.0,0.0,0.0,0.0,0.0,0.0,0.0,0.0,0.0,0.0413643032723,0.0890117918517,0.00392699081699,0.000169,0.0,0.0,0.0,0.000169,0.0,0.0,0.0,0.000169,0.42183,-0.23544,9.93753,0.006889,0.0,0.0,0.0,0.006889,0.0,0.0,0.0,0.006889
1421851137228868008,83506,1421851137228868008,fcu,-0.0213189069557,-0.0121773776874,-0.732650439538,0.680162149141,0.0,0.0,0.0,0.0,0.0,0.0,0.0,0.0,0.0,0.0212057504117,0.0167551608191,0.0298451302091,0.000169,0.0,0.0,0.0,0.000169,0.0,0.0,0.0,0.000169,0.41202,-0.20601,9.86886,0.006889,0.0,0.0,0.0,0.006889,0.0,0.0,0.0,0.006889
1421851137230870008,83507,1421851137230870008,fcu,-0.0213143423396,-0.0120540692561,-0.732652688772,0.680162065879,0.0,0.0,0.0,0.0,0.0,0.0,0.0,0.0,0.0,-0.00942477796077,0.0759218224618,0.0196349540849,0.000169,0.0,0.0,0.0,0.000169,0.0,0.0,0.0,0.000169,0.42183,-0.23544,9.96696,0.006889,0.0,0.0,0.0,0.006889,0.0,0.0,0.0,0.006889
1421851137234869957,83509,1421851137234869957,fcu,-0.0212539293447,-0.0121198600199,-0.732592275777,0.680227856643,0.0,0.0,0.0,0.0,0.0,0.0,0.0,0.0,0.0,0.0123045712266,-0.00314159265359,0.00654498469498,0.000169,0.0,0.0,0.0,0.000169,0.0,0.0,0.0,0.000169,0.42183,-0.16677,9.93753,0.006889,0.0,0.0,0.0,0.006889,0.0,0.0,0.0,0.006889
1421851137236871958,83510,1421851137236871958,fcu,-0.0215015368807,-0.012108878463,-0.732651363987,0.680156627419,0.0,0.0,0.0,0.0,0.0,0.0,0.0,0.0,0.0,-0.178023583703,-0.115715329407,-0.0416261026601,0.000169,0.0,0.0,0.0,0.000169,0.0,0.0,0.0,0.000169,0.42183,-0.16677,9.93753,0.006889,0.0,0.0,0.0,0.006889,0.0,0.0,0.0,0.006889
1421851137244874001,83514,1421851137244874001,fcu,-0.021249375482,-0.0119965509949,-0.732594514257,0.680227773975,0.0,0.0,0.0,0.0,0.0,0.0,0.0,0.0,0.0,0.0206821516361,-0.0924151838931,-0.0170169602069,0.000169,0.0,0.0,0.0,0.000169,0.0,0.0,0.0,0.000169,0.43164,-0.22563,10.0062,0.006889,0.0,0.0,0.0,0.006889,0.0,0.0,0.0,0.006889
1421851137246873856,83515,1421851137246873856,fcu,-0.0214959262372,-0.0119874457549,-0.732594244815,0.680220478054,0.0,0.0,0.0,0.0,0.0,0.0,0.0,0.0,0.0,-0.17723818554,-0.12252211349,-0.0523598775598,0.000169,0.0,0.0,0.0,0.000169,0.0,0.0,0.0,0.000169,0.42183,-0.15696,9.87867,0.006889,0.0,0.0,0.0,0.006889,0.0,0.0,0.0,0.006889
1421851137250875950,83517,1421851137250875950,fcu,-0.0216237545187,-0.0121062021953,-0.732591870422,0.680216880488,0.0,0.0,0.0,0.0,0.0,0.0,0.0,0.0,0.0,0.154461638801,-0.177499984928,0.0322013246993,0.000169,0.0,0.0,0.0,0.000169,0.0,0.0,0.0,0.000169,0.42183,-0.15696,9.87867,0.006889,0.0,0.0,0.0,0.006889,0.0,0.0,0.0,0.006889
1421851137252876043,83518,1421851137252876043,fcu,-0.0214355139579,-0.0120532472648,-0.732533832536,0.680286279564,0.0,0.0,0.0,0.0,0.0,0.0,0.0,0.0,0.0,0.0463384916404,0.206559716974,0.073042029196,0.000169,0.0,0.0,0.0,0.000169,0.0,0.0,0.0,0.000169,0.44145,-0.21582,10.04544,0.006889,0.0,0.0,0.0,0.006889,0.0,0.0,0.0,0.006889
1421851137254878044,83519,1421851137254878044,fcu,-0.0213705578539,-0.0119957284118,-0.732475647267,0.680351988251,0.0,0.0,0.0,0.0,0.0,0.0,0.0,0.0,0.0,-0.00811578102177,0.161006623496,0.0628318530718,0.000169,0.0,0.0,0.0,0.000169,0.0,0.0,0.0,0.000169,0.44145,-0.21582,10.04544,0.006889,0.0,0.0,0.0,0.006889,0.0,0.0,0.0,0.006889
1421851137256877899,83520,1421851137256877899,fcu,-0.0214299296838,-0.0119318078075,-0.732476691303,0.680350120728,0.0,0.0,0.0,0.0,0.0,0.0,0.0,0.0,0.0,-0.141371669412,-0.113097335529,-0.00654498469498,0.000169,0.0,0.0,0.0,0.000169,0.0,0.0,0.0,0.000169,0.43164,-0.0981,9.88848,0.006889,0.0,0.0,0.0,0.006889,0.0,0.0,0.0,0.006889
1421851137258877993,83521,1421851137258877993,fcu,-0.0217414290404,-0.0119802379527,-0.732534609615,0.680277024365,0.0,0.0,0.0,0.0,0.0,0.0,0.0,0.0,0.0,-0.186924762889,-0.196611340237,-0.107599548385,0.000169,0.0,0.0,0.0,0.000169,0.0,0.0,0.0,0.000169,0.43164,-0.0981,9.88848,0.006889,0.0,0.0,0.0,0.006889,0.0,0.0,0.0,0.006889
1421851137260879993,83522,1421851137260879993,fcu,-0.0218053374361,-0.0120396218199,-0.732533424572,0.680275206553,0.0,0.0,0.0,0.0,0.0,0.0,0.0,0.0,0.0,0.00314159265359,-0.191637151869,-0.00837758040957,0.000169,0.0,0.0,0.0,0.000169,0.0,0.0,0.0,0.000169,0.41202,-0.11772,9.91791,0.006889,0.0,0.0,0.0,0.006889,0.0,0.0,0.0,0.006889
1421851137262879848,83523,1421851137262879848,fcu,-0.0215039662427,-0.012235940034,-0.732530383094,0.68028457211,0.0,0.0,0.0,0.0,0.0,0.0,0.0,0.0,0.0,0.172787595947,0.22357667718,0.0269653369433,0.000169,0.0,0.0,0.0,0.000169,0.0,0.0,0.0,0.000169,0.41202,-0.11772,9.91791,0.006889,0.0,0.0,0.0,0.006889,0.0,0.0,0.0,0.006889
1421851137264879942,83524,1421851137264879942,fcu,-0.021375090195,-0.0121190382298,-0.732473408773,0.680352070529,0.0,0.0,0.0,0.0,0.0,0.0,0.0,0.0,0.0,0.0272271363311,0.334056018832,0.0568104671524,0.000169,0.0,0.0,0.0,0.000169,0.0,0.0,0.0,0.000169,0.50031,-0.14715,10.01601,0.006889,0.0,0.0,0.0,0.006889,0.0,0.0,0.0,0.006889
1421851137266881943,83525,1421851137266881943,fcu,-0.0212427490099,-0.011876949321,-0.732477997929,0.680355543991,0.0,0.0,0.0,0.0,0.0,0.0,0.0,0.0,0.0,-0.057334065928,0.0246091424531,0.0157079632679,0.000169,0.0,0.0,0.0,0.000169,0.0,0.0,0.0,0.000169,0.50031,-0.14715,10.01601,0.006889,0.0,0.0,0.0,0.006889,0.0,0.0,0.0,0.006889
1421851137268882036,83526,1421851137268882036,fcu,-0.021306653513,-0.0119363389119,-0.732476825387,0.680353768712,0.0,0.0,0.0,0.0,0.0,0.0,0.0,0.0,0.0,-0.0963421747101,-0.179070781255,-0.0675442420522,0.000169,0.0,0.0,0.0,0.000169,0.0,0.0,0.0,0.000169,0.50031,-0.14715,10.01601,0.006889,0.0,0.0,0.0,0.006889,0.0,0.0,0.0,0.006889
1421851137270881891,83527,1421851137270881891,fcu,-0.0215577375642,-0.0120505867395,-0.732474328694,0.68034653311,0.0,0.0,0.0,0.0,0.0,0.0,0.0,0.0,0.0,-0.0947713783833,-0.297927703315,-0.0295833308213,0.000169,0.0,0.0,0.0,0.000169,0.0,0.0,0.0,0.000169,0.3924,-0.04905,9.77076,0.006889,0.0,0.0,0.0,0.006889,0.0,0.0,0.0,0.006889
1421851137276883841,83530,1421851137276883841,fcu,-0.0211868561767,-0.0120660290003,-0.732415355768,0.68042139495,0.0,0.0,0.0,0.0,0.0,0.0,0.0,0.0,0.0,0.109693943488,0.264155582289,0.0434586983747,0.000169,0.0,0.0,0.0,0.000169,0.0,0.0,0.0,0.000169,0.48069,-0.12753,10.08468,0.006889,0.0,0.0,0.0,0.006889,0.0,0.0,0.0,0.006889
1421851137278885841,83531,1421851137278885841,fcu,-0.0212462340642,-0.0120021136572,-0.732416405938,0.680419543457,0.0,0.0,0.0,0.0,0.0,0.0,0.0,0.0,0.0,-0.0733038285838,-0.0306305283725,-0.052098078172,0.000169,0.0,0.0,0.0,0.000169,0.0,0.0,0.0,0.000169,0.48069,-0.12753,10.08468,0.006889,0.0,0.0,0.0,0.006889,0.0,0.0,0.0,0.006889
1421851137282886028,83533,1421851137282886028,fcu,-0.0216205843813,-0.0121118628661,-0.732413764955,0.680408649278,0.0,0.0,0.0,0.0,0.0,0.0,0.0,0.0,0.0,-0.125401906756,-0.0963421747101,0.100007366139,0.000169,0.0,0.0,0.0,0.000169,0.0,0.0,0.0,0.000169,0.43164,-0.02943,9.79038,0.006889,0.0,0.0,0.0,0.006889,0.0,0.0,0.0,0.006889
1421851137284888029,83534,1421851137284888029,fcu,-0.0216205843813,-0.0121118628661,-0.732413764955,0.680408649278,0.0,0.0,0.0,0.0,0.0,0.0,0.0,0.0,0.0,0.0725184304204,0.000523598775598,0.0403171057211,0.000169,0.0,0.0,0.0,0.000169,0.0,0.0,0.0,0.000169,0.41202,-0.04905,9.92772,0.006889,0.0,0.0,0.0,0.006889,0.0,0.0,0.0,0.006889
1421851137286887884,83535,1421851137286887884,fcu,-0.0211868561767,-0.0120660290003,-0.732415355768,0.68042139495,0.0,0.0,0.0,0.0,0.0,0.0,0.0,0.0,0.0,0.102625360017,0.246353223919,-0.00340339204139,0.000169,0.0,0.0,0.0,0.000169,0.0,0.0,0.0,0.000169,0.41202,-0.04905,9.92772,0.006889,0.0,0.0,0.0,0.006889,0.0,0.0,0.0,0.006889
1421851137288887978,83536,1421851137288887978,fcu,-0.0211229565476,-0.0120066340385,-0.732416538521,0.680423159179,0.0,0.0,0.0,0.0,0.0,0.0,0.0,0.0,0.0,-0.00445058959259,0.138230076758,0.01308996939,0.000169,0.0,0.0,0.0,0.000169,0.0,0.0,0.0,0.000169,0.50031,-0.11772,10.05525,0.006889,0.0,0.0,0.0,0.006889,0.0,0.0,0.0,0.006889
1421851137290889978,83537,1421851137290889978,fcu,-0.0211229565476,-0.0120066340385,-0.732416538521,0.680423159179,0.0,0.0,0.0,0.0,0.0,0.0,0.0,0.0,0.0,-0.0149225651046,-0.0175405589825,-0.0316777259237,0.000169,0.0,0.0,0.0,0.000169,0.0,0.0,0.0,0.000169,0.50031,-0.11772,10.05525,0.006889,0.0,0.0,0.0,0.006889,0.0,0.0,0.0,0.006889
1421851137292889833,83538,1421851137292889833,fcu,-0.0213101333772,-0.0120615086306,-0.732415222791,0.68041776847,0.0,0.0,0.0,0.0,0.0,0.0,0.0,0.0,0.0,-0.17723818554,-0.0672824426644,0.0238237442897,0.000169,0.0,0.0,0.0,0.000169,0.0,0.0,0.0,0.000169,0.36297,0.0,9.69228,0.006889,0.0,0.0,0.0,0.006889,0.0,0.0,0.0,0.006889
1421851137294889927,83539,1421851137294889927,fcu,-0.0214278468641,-0.0119355478541,-0.732357936651,0.680477951664,0.0,0.0,0.0,0.0,0.0,0.0,0.0,0.0,0.0,-0.120427718388,-0.0911061869541,0.114929931244,0.000169,0.0,0.0,0.0,0.000169,0.0,0.0,0.0,0.000169,0.36297,0.0,9.69228,0.006889,0.0,0.0,0.0,0.006889,0.0,0.0,0.0,0.006889
1421851137296891928,83540,1421851137296891928,fcu,-0.0212496974207,-0.0121272783023,-0.732354786834,0.680483538142,0.0,0.0,0.0,0.0,0.0,0.0,0.0,0.0,0.0,0.184044969623,0.204203522483,-0.0570722665402,0.000169,0.0,0.0,0.0,0.000169,0.0,0.0,0.0,0.000169,0.36297,0.0,9.69228,0.006889,0.0,0.0,0.0,0.006889,0.0,0.0,0.0,0.006889
1421851137298892021,83541,1421851137298892021,fcu,-0.0210625249108,-0.0120723874912,-0.732356106884,0.680488912631,0.0,0.0,0.0,0.0,0.0,0.0,0.0,0.0,0.0,0.0709476340936,0.269129770658,-0.00785398163397,0.000169,0.0,0.0,0.0,0.000169,0.0,0.0,0.0,0.000169,0.47088,-0.15696,10.08468,0.006889,0.0,0.0,0.0,0.006889,0.0,0.0,0.0,0.006889
1421851137300891876,83542,1421851137300891876,fcu,-0.0209941193174,-0.0118896759689,-0.732359506077,0.680490585106,0.0,0.0,0.0,0.0,0.0,0.0,0.0,0.0,0.0,0.00340339204139,0.0929387826687,0.00392699081699,0.000169,0.0,0.0,0.0,0.000169,0.0,0.0,0.0,0.000169,0.47088,-0.15696,10.08468,0.006889,0.0,0.0,0.0,0.006889,0.0,0.0,0.0,0.006889
1421851137302893877,83543,1421851137302893877,fcu,-0.0212451866013,-0.0120039676952,-0.732357025343,0.680483456255,0.0,0.0,0.0,0.0,0.0,0.0,0.0,0.0,0.0,-0.172787595947,-0.14634585778,0.00314159265359,0.000169,0.0,0.0,0.0,0.000169,0.0,0.0,0.0,0.000169,0.42183,-0.08829,9.82962,0.006889,0.0,0.0,0.0,0.006889,0.0,0.0,0.0,0.006889
1421851137304893970,83544,1421851137304893970,fcu,-0.0212451866013,-0.0120039676952,-0.732357025343,0.680483456255,0.0,0.0,0.0,0.0,0.0,0.0,0.0,0.0,0.0,-0.172787595947,-0.14634585778,0.0431968989869,0.000169,0.0,0.0,0.0,0.000169,0.0,0.0,0.0,0.000169,0.42183,-0.08829,9.82962,0.006889,0.0,0.0,0.0,0.006889,0.0,0.0,0.0,0.006889
1421851137306893826,83545,1421851137306893826,fcu,-0.0214268052095,-0.011937417741,-0.732298550958,0.680541859359,0.0,0.0,0.0,0.0,0.0,0.0,0.0,0.0,0.0,0.183783170235,-0.0939859802199,0.0327249234749,0.000169,0.0,0.0,0.0,0.000169,0.0,0.0,0.0,0.000169,0.41202,-0.08829,9.98658,0.006889,0.0,0.0,0.0,0.006889,0.0,0.0,0.0,0.006889
1421851137308895826,83546,1421851137308895826,fcu,-0.0213080279223,-0.0120652277668,-0.732296456332,0.680545588677,0.0,0.0,0.0,0.0,0.0,0.0,0.0,0.0,0.0,0.280125344945,0.0125663706144,-0.0479092879672,0.000169,0.0,0.0,0.0,0.000169,0.0,0.0,0.0,0.000169,0.41202,-0.08829,9.98658,0.006889,0.0,0.0,0.0,0.006889,0.0,0.0,0.0,0.006889
1421851137310895920,83547,1421851137310895920,fcu,-0.0210569712504,-0.0119509143021,-0.732298947991,0.680552738868,0.0,0.0,0.0,0.0,0.0,0.0,0.0,0.0,0.0,0.0869173967493,0.189280957379,-0.0390081087821,0.000169,0.0,0.0,0.0,0.000169,0.0,0.0,0.0,0.000169,0.4905,-0.18639,10.02582,0.006889,0.0,0.0,0.0,0.006889,0.0,0.0,0.0,0.006889
1421851137314898014,83549,1421851137314898014,fcu,-0.0211802498691,-0.0119464154253,-0.732298816432,0.680549133881,0.0,0.0,0.0,0.0,0.0,0.0,0.0,0.0,0.0,-0.121213116551,-0.0850848010347,0.0596902604182,0.000169,0.0,0.0,0.0,0.000169,0.0,0.0,0.0,0.000169,0.41202,-0.04905,9.66285,0.006889,0.0,0.0,0.0,0.006889,0.0,0.0,0.0,0.006889
1421851137316897869,83550,1421851137316897869,fcu,-0.0212935069953,-0.0116971512777,-0.732243683459,0.680609250045,0.0,0.0,0.0,0.0,0.0,0.0,0.0,0.0,0.0,-0.169646003294,-0.0191113553093,0.0497418836818,0.000169,0.0,0.0,0.0,0.000169,0.0,0.0,0.0,0.000169,0.41202,-0.04905,9.66285,0.006889,0.0,0.0,0.0,0.006889,0.0,0.0,0.0,0.006889
1421851137318897963,83551,1421851137318897963,fcu,-0.0214167847402,-0.0116926632052,-0.732243550648,0.680605602014,0.0,0.0,0.0,0.0,0.0,0.0,0.0,0.0,0.0,-0.0350811179651,-0.127496301858,-0.00340339204139,0.000169,0.0,0.0,0.0,0.000169,0.0,0.0,0.0,0.000169,0.44145,-0.13734,9.95715,0.006889,0.0,0.0,0.0,0.006889,0.0,0.0,0.0,0.006889
1421851137320899963,83552,1421851137320899963,fcu,-0.0212935069953,-0.0116971512777,-0.732243683459,0.680609250045,0.0,0.0,0.0,0.0,0.0,0.0,0.0,0.0,0.0,0.146607657168,-0.0251327412287,-0.053407075111,0.000169,0.0,0.0,0.0,0.000169,0.0,0.0,0.0,0.000169,0.44145,-0.13734,9.95715,0.006889,0.0,0.0,0.0,0.006889,0.0,0.0,0.0,0.006889
1421851137324899912,83554,1421851137324899912,fcu,-0.020987554532,-0.0117700277864,-0.73224292239,0.680618315659,0.0,0.0,0.0,0.0,0.0,0.0,0.0,0.0,0.0,0.052098078172,0.0662352451132,0.0780162175641,0.000169,0.0,0.0,0.0,0.000169,0.0,0.0,0.0,0.000169,0.46107,-0.12753,9.78057,0.006889,0.0,0.0,0.0,0.006889,0.0,0.0,0.0,0.006889
1421851137326901913,83555,1421851137326901913,fcu,-0.021105328461,-0.0116440689403,-0.732185567875,0.680678540109,0.0,0.0,0.0,0.0,0.0,0.0,0.0,0.0,0.0,-0.240593637387,0.0502654824574,-0.0128281700022,0.000169,0.0,0.0,0.0,0.000169,0.0,0.0,0.0,0.000169,0.46107,-0.12753,9.78057,0.006889,0.0,0.0,0.0,0.006889,0.0,0.0,0.0,0.006889
1421851137328902006,83556,1421851137328902006,fcu,-0.0212241289556,-0.0115162782746,-0.732187588996,0.680674846167,0.0,0.0,0.0,0.0,0.0,0.0,0.0,0.0,0.0,-0.274627557801,-0.0261799387799,-0.00183259571459,0.000169,0.0,0.0,0.0,0.000169,0.0,0.0,0.0,0.000169,0.46107,-0.12753,9.78057,0.006889,0.0,0.0,0.0,0.006889,0.0,0.0,0.0,0.006889
1421851137338906050,83561,1421851137338906050,fcu,-0.021026055893,-0.0112183792982,-0.732074260393,0.680807851166,0.0,0.0,0.0,0.0,0.0,0.0,0.0,0.0,0.0,-0.31520646291,0.205250720035,0.0408407044967,0.000169,0.0,0.0,0.0,0.000169,0.0,0.0,0.0,0.000169,0.45126,-0.21582,9.95715,0.006889,0.0,0.0,0.0,0.006889,0.0,0.0,0.0,0.006889
1421851137340905905,83562,1421851137340905905,fcu,-0.0212087473723,-0.0111500378917,-0.732075105905,0.680802397913,0.0,0.0,0.0,0.0,0.0,0.0,0.0,0.0,0.0,-0.161006623496,-0.148963851658,0.00654498469498,0.000169,0.0,0.0,0.0,0.000169,0.0,0.0,0.0,0.000169,0.44145,-0.00981,9.81,0.006889,0.0,0.0,0.0,0.006889,0.0,0.0,0.0,0.006889
1421851137344907999,83564,1421851137344907999,fcu,-0.0210988387962,-0.0115244382413,-0.732068908362,0.680806242432,0.0,0.0,0.0,0.0,0.0,0.0,0.0,0.0,0.0,0.224623874732,-0.0421497014357,-0.0329867228627,0.000169,0.0,0.0,0.0,0.000169,0.0,0.0,0.0,0.000169,0.44145,-0.18639,10.05525,0.006889,0.0,0.0,0.0,0.006889,0.0,0.0,0.0,0.006889
1421851137346907854,83565,1421851137346907854,fcu,-0.0209151346141,-0.0115946043621,-0.732008614587,0.680875546971,0.0,0.0,0.0,0.0,0.0,0.0,0.0,0.0,0.0,0.143204265126,0.0549778714378,0.168337006355,0.000169,0.0,0.0,0.0,0.000169,0.0,0.0,0.0,0.000169,0.44145,-0.18639,10.05525,0.006889,0.0,0.0,0.0,0.006889,0.0,0.0,0.0,0.006889
1421851137352910042,83568,1421851137352910042,fcu,-0.0210835203582,-0.0111581736629,-0.73195640238,0.680933774567,0.0,0.0,0.0,0.0,0.0,0.0,0.0,0.0,0.0,0.0277507351067,-0.178023583703,-0.0382227106187,0.000169,0.0,0.0,0.0,0.000169,0.0,0.0,0.0,0.000169,0.46107,-0.0981,9.83943,0.006889,0.0,0.0,0.0,0.006889,0.0,0.0,0.0,0.006889
1421851137354909897,83569,1421851137354909897,fcu,-0.0210879559457,-0.0112814896454,-0.731954314478,0.680933849667,0.0,0.0,0.0,0.0,0.0,0.0,0.0,0.0,0.0,0.250280214736,-0.182212373908,-0.0947713783833,0.000169,0.0,0.0,0.0,0.000169,0.0,0.0,0.0,0.000169,0.42183,-0.1962,10.08468,0.006889,0.0,0.0,0.0,0.006889,0.0,0.0,0.0,0.006889
