%time,field.header.seq,field.header.stamp,field.header.frame_id,field.orientation.x,field.orientation.y,field.orientation.z,field.orientation.w,field.orientation_covariance0,field.orientation_covariance1,field.orientation_covariance2,field.orientation_covariance3,field.orientation_covariance4,field.orientation_covariance5,field.orientation_covariance6,field.orientation_covariance7,field.orientation_covariance8,field.angular_velocity.x,field.angular_velocity.y,field.angular_velocity.z,field.angular_velocity_covariance0,field.angular_velocity_covariance1,field.angular_velocity_covariance2,field.angular_velocity_covariance3,field.angular_velocity_covariance4,field.angular_velocity_covariance5,field.angular_velocity_covariance6,field.angular_velocity_covariance7,field.angular_velocity_covariance8,field.linear_acceleration.x,field.linear_acceleration.y,field.linear_acceleration.z,field.linear_acceleration_covariance0,field.linear_acceleration_covariance1,field.linear_acceleration_covariance2,field.linear_acceleration_covariance3,field.linear_acceleration_covariance4,field.linear_acceleration_covariance5,field.linear_acceleration_covariance6,field.linear_acceleration_covariance7,field.linear_acceleration_covariance8
1421850805013119936,433471,1421850805013119936,fcu,-0.00955790548761,-0.00975964974941,-0.756515068781,0.65383357698,0.0,0.0,0.0,0.0,0.0,0.0,0.0,0.0,0.0,0.0348193185773,-0.0798488132787,-0.049480084294,0.000169,0.0,0.0,0.0,0.000169,0.0,0.0,0.0,0.000169,0.2943,0.00981,10.25145,0.006889,0.0,0.0,0.0,0.006889,0.0,0.0,0.0,0.006889
1421850805015120029,433472,1421850805015120029,fcu,-0.00973804082426,-0.00968466864814,-0.756515804174,0.653831182943,0.0,0.0,0.0,0.0,0.0,0.0,0.0,0.0,0.0,-0.0466002910282,-0.0565486677646,-0.0178023583703,0.000169,0.0,0.0,0.0,0.000169,0.0,0.0,0.0,0.000169,0.2943,0.00981,10.25145,0.006889,0.0,0.0,0.0,0.006889,0.0,0.0,0.0,0.006889
1421850805017119884,433473,1421850805017119884,fcu,-0.00968098325278,-0.00975068706931,-0.756514956147,0.653832030258,0.0,0.0,0.0,0.0,0.0,0.0,0.0,0.0,0.0,0.0971275728735,-0.0693768377668,-0.0204203522483,0.000169,0.0,0.0,0.0,0.000169,0.0,0.0,0.0,0.000169,0.32373,-0.05886,10.38879,0.006889,0.0,0.0,0.0,0.006889,0.0,0.0,0.0,0.006889
1421850805019119978,433474,1421850805019119978,fcu,-0.00961496319453,-0.00969363131837,-0.756515917591,0.653832740406,0.0,0.0,0.0,0.0,0.0,0.0,0.0,0.0,0.0,-0.0285361332701,0.184044969623,0.0845612022591,0.000169,0.0,0.0,0.0,0.000169,0.0,0.0,0.0,0.000169,0.32373,-0.05886,10.38879,0.006889,0.0,0.0,0.0,0.006889,0.0,0.0,0.0,0.006889
1421850805021119833,433475,1421850805021119833,fcu,-0.00954810207685,-0.00963740875941,-0.756459812661,0.653899461636,0.0,0.0,0.0,0.0,0.0,0.0,0.0,0.0,0.0,-0.0102101761242,0.153938040026,0.103934356956,0.000169,0.0,0.0,0.0,0.000169,0.0,0.0,0.0,0.000169,0.35316,-0.01962,10.38879,0.006889,0.0,0.0,0.0,0.006889,0.0,0.0,0.0,0.006889
1421850805025121927,433477,1421850805025121927,fcu,-0.0097470032373,-0.00980774274598,-0.756513988942,0.653831315131,0.0,0.0,0.0,0.0,0.0,0.0,0.0,0.0,0.0,0.0670206432766,-0.140062672473,-0.0871791961371,0.000169,0.0,0.0,0.0,0.000169,0.0,0.0,0.0,0.000169,0.35316,-0.01962,10.38879,0.006889,0.0,0.0,0.0,0.006889,0.0,0.0,0.0,0.006889
1421850805027122021,433478,1421850805027122021,fcu,-0.0097470032373,-0.00980774274598,-0.756513988942,0.653831315131,0.0,0.0,0.0,0.0,0.0,0.0,0.0,0.0,0.0,0.0418879020479,-0.130637894512,-0.0230383461263,0.000169,0.0,0.0,0.0,0.000169,0.0,0.0,0.0,0.000169,0.31392,0.0,10.34955,0.006889,0.0,0.0,0.0,0.006889,0.0,0.0,0.0,0.006889
1421850805037123919,433483,1421850805037123919,fcu,-0.00986111818028,-0.00967570599783,-0.756515689194,0.653829603999,0.0,0.0,0.0,0.0,0.0,0.0,0.0,0.0,0.0,-0.247138622082,-0.119642320224,-0.0489564855184,0.000169,0.0,0.0,0.0,0.000169,0.0,0.0,0.0,0.000169,0.36297,0.03924,10.33974,0.006889,0.0,0.0,0.0,0.006889,0.0,0.0,0.0,0.006889
1421850805039124012,433484,1421850805039124012,fcu,-0.0100681396819,-0.00996994670624,-0.756510935433,0.653827528708,0.0,0.0,0.0,0.0,0.0,0.0,0.0,0.0,0.0,0.15943582717,-0.128543499409,-0.0513126800086,0.000169,0.0,0.0,0.0,0.000169,0.0,0.0,0.0,0.000169,0.36297,0.03924,10.33974,0.006889,0.0,0.0,0.0,0.006889,0.0,0.0,0.0,0.006889
1421850805041123867,433485,1421850805041123867,fcu,-0.0100681396819,-0.00996994670624,-0.756510935433,0.653827528708,0.0,0.0,0.0,0.0,0.0,0.0,0.0,0.0,0.0,0.0240855436775,0.0233001455141,-0.00340339204139,0.000169,0.0,0.0,0.0,0.000169,0.0,0.0,0.0,0.000169,0.38259,-0.02943,10.43784,0.006889,0.0,0.0,0.0,0.006889,0.0,0.0,0.0,0.006889
1421850805043123960,433486,1421850805043123960,fcu,-0.00993610036536,-0.00985583570773,-0.756512900213,0.65382900534,0.0,0.0,0.0,0.0,0.0,0.0,0.0,0.0,0.0,0.0209439510239,0.212581102893,0.074351026135,0.000169,0.0,0.0,0.0,0.000169,0.0,0.0,0.0,0.000169,0.38259,-0.02943,10.43784,0.006889,0.0,0.0,0.0,0.006889,0.0,0.0,0.0,0.006889
1421850805045124054,433487,1421850805045124054,fcu,-0.00991733689815,-0.00961055300048,-0.756459470476,0.653894756997,0.0,0.0,0.0,0.0,0.0,0.0,0.0,0.0,0.0,-0.11780972451,-0.0814196096055,-0.0609992573572,0.000169,0.0,0.0,0.0,0.000169,0.0,0.0,0.0,0.000169,0.38259,-0.02943,10.43784,0.006889,0.0,0.0,0.0,0.006889,0.0,0.0,0.0,0.006889
1421850805051126003,433490,1421850805051126003,fcu,-0.0104284064057,-0.00981998535292,-0.756512421519,0.653822431793,0.0,0.0,0.0,0.0,0.0,0.0,0.0,0.0,0.0,0.143727863902,-0.159959425945,0.0178023583703,0.000169,0.0,0.0,0.0,0.000169,0.0,0.0,0.0,0.000169,0.35316,-0.01962,10.46727,0.006889,0.0,0.0,0.0,0.006889,0.0,0.0,0.0,0.006889
1421850805053125858,433491,1421850805053125858,fcu,-0.0103053303277,-0.00982894791015,-0.756512543539,0.653824107401,0.0,0.0,0.0,0.0,0.0,0.0,0.0,0.0,0.0,0.114929931244,0.211272105954,0.014398966329,0.000169,0.0,0.0,0.0,0.000169,0.0,0.0,0.0,0.000169,0.35316,-0.01962,10.46727,0.006889,0.0,0.0,0.0,0.006889,0.0,0.0,0.0,0.006889
1421850805055125952,433492,1421850805055125952,fcu,-0.0101634920553,-0.00959264926232,-0.75645923454,0.653891513164,0.0,0.0,0.0,0.0,0.0,0.0,0.0,0.0,0.0,-0.0871791961371,0.0890117918517,0.0191113553093,0.000169,0.0,0.0,0.0,0.000169,0.0,0.0,0.0,0.000169,0.35316,-0.01962,10.46727,0.006889,0.0,0.0,0.0,0.006889,0.0,0.0,0.0,0.006889
1421850805057126045,433493,1421850805057126045,fcu,-0.0101634920553,-0.00959264926232,-0.75645923454,0.653891513164,0.0,0.0,0.0,0.0,0.0,0.0,0.0,0.0,0.0,-0.126972703083,-0.0285361332701,-0.0767072206252,0.000169,0.0,0.0,0.0,0.000169,0.0,0.0,0.0,0.000169,0.3924,0.00981,10.3986,0.006889,0.0,0.0,0.0,0.006889,0.0,0.0,0.0,0.006889
1421850805059125900,433494,1421850805059125900,fcu,-0.0105995763587,-0.00962193052984,-0.75651496646,0.653819679236,0.0,0.0,0.0,0.0,0.0,0.0,0.0,0.0,0.0,-0.143204265126,-0.269129770658,-0.00183259571459,0.000169,0.0,0.0,0.0,0.000169,0.0,0.0,0.0,0.000169,0.3924,0.00981,10.3986,0.006889,0.0,0.0,0.0,0.006889,0.0,0.0,0.0,0.006889
1421850805061127901,433495,1421850805061127901,fcu,-0.0107316141069,-0.00973604212454,-0.756513025297,0.653818082114,0.0,0.0,0.0,0.0,0.0,0.0,0.0,0.0,0.0,-0.129328897573,-0.206559716974,0.0552396708256,0.000169,0.0,0.0,0.0,0.000169,0.0,0.0,0.0,0.000169,0.30411,0.02943,10.32993,0.006889,0.0,0.0,0.0,0.006889,0.0,0.0,0.0,0.006889
1421850805063127995,433496,1421850805063127995,fcu,-0.0106737022431,-0.00980299179658,-0.756455113433,0.653885031786,0.0,0.0,0.0,0.0,0.0,0.0,0.0,0.0,0.0,0.169122404518,-0.00759218224618,0.00706858347058,0.000169,0.0,0.0,0.0,0.000169,0.0,0.0,0.0,0.000169,0.30411,0.02943,10.32993,0.006889,0.0,0.0,0.0,0.006889,0.0,0.0,0.0,0.006889
1421850805065127850,433497,1421850805065127850,fcu,-0.0104185977494,-0.00969782064504,-0.756457187852,0.653888314656,0.0,0.0,0.0,0.0,0.0,0.0,0.0,0.0,0.0,0.0123045712266,0.18195057452,0.049480084294,0.000169,0.0,0.0,0.0,0.000169,0.0,0.0,0.0,0.000169,0.37278,-0.05886,10.58499,0.006889,0.0,0.0,0.0,0.006889,0.0,0.0,0.0,0.006889
1421850805067127943,433498,1421850805067127943,fcu,-0.0104185977494,-0.00969782064504,-0.756457187852,0.653888314656,0.0,0.0,0.0,0.0,0.0,0.0,0.0,0.0,0.0,-0.0316777259237,0.0209439510239,-0.00733038285838,0.000169,0.0,0.0,0.0,0.000169,0.0,0.0,0.0,0.000169,0.37278,-0.05886,10.58499,0.006889,0.0,0.0,0.0,0.006889,0.0,0.0,0.0,0.006889
1421850805069128036,433499,1421850805069128036,fcu,-0.0107886704572,-0.00967002387193,-0.756513872046,0.653817143114,0.0,0.0,0.0,0.0,0.0,0.0,0.0,0.0,0.0,-0.125401906756,-0.235095850244,-0.0709476340936,0.000169,0.0,0.0,0.0,0.000169,0.0,0.0,0.0,0.000169,0.37278,0.01962,10.37898,0.006889,0.0,0.0,0.0,0.006889,0.0,0.0,0.0,0.006889
1421850805071127892,433500,1421850805071127892,fcu,-0.0109207077368,-0.00978413534103,-0.756511917797,0.653815514553,0.0,0.0,0.0,0.0,0.0,0.0,0.0,0.0,0.0,-0.100007366139,-0.178285383091,0.00209439510239,0.000169,0.0,0.0,0.0,0.000169,0.0,0.0,0.0,0.000169,0.37278,0.01962,10.37898,0.006889,0.0,0.0,0.0,0.006889,0.0,0.0,0.0,0.006889
1421850805073129892,433501,1421850805073129892,fcu,-0.0109769157548,-0.00971907513849,-0.756455709779,0.653880574755,0.0,0.0,0.0,0.0,0.0,0.0,0.0,0.0,0.0,-0.0685914396034,-0.0238237442897,0.066497044501,0.000169,0.0,0.0,0.0,0.000169,0.0,0.0,0.0,0.000169,0.2943,0.03924,10.37898,0.006889,0.0,0.0,0.0,0.006889,0.0,0.0,0.0,0.006889
1421850805075129986,433502,1421850805075129986,fcu,-0.0108448885764,-0.0096049519773,-0.756457653927,0.653882215009,0.0,0.0,0.0,0.0,0.0,0.0,0.0,0.0,0.0,0.0308923277603,0.159959425945,-0.0196349540849,0.000169,0.0,0.0,0.0,0.000169,0.0,0.0,0.0,0.000169,0.2943,0.03924,10.37898,0.006889,0.0,0.0,0.0,0.006889,0.0,0.0,0.0,0.006889
1421850805077129841,433503,1421850805077129841,fcu,-0.0108448885764,-0.0096049519773,-0.756457653927,0.653882215009,0.0,0.0,0.0,0.0,0.0,0.0,0.0,0.0,0.0,0.00287979326579,0.0706858347058,-0.001308996939,0.000169,0.0,0.0,0.0,0.000169,0.0,0.0,0.0,0.000169,0.3924,-0.04905,10.50651,0.006889,0.0,0.0,0.0,0.006889,0.0,0.0,0.0,0.006889
1421850805081130028,433505,1421850805081130028,fcu,-0.01115789416,-0.00964313653017,-0.756513482523,0.653811794079,0.0,0.0,0.0,0.0,0.0,0.0,0.0,0.0,0.0,-0.0905825881785,-0.263893782902,-0.0185877565337,0.000169,0.0,0.0,0.0,0.000169,0.0,0.0,0.0,0.000169,0.30411,0.07848,10.32012,0.006889,0.0,0.0,0.0,0.006889,0.0,0.0,0.0,0.006889
1421850805083129883,433506,1421850805083129883,fcu,-0.0113461403895,-0.00969222012046,-0.756455313691,0.653875129024,0.0,0.0,0.0,0.0,0.0,0.0,0.0,0.0,0.0,-0.188233759828,-0.0984365698125,0.0816814089933,0.000169,0.0,0.0,0.0,0.000169,0.0,0.0,0.0,0.000169,0.30411,0.07848,10.32012,0.006889,0.0,0.0,0.0,0.006889,0.0,0.0,0.0,0.006889
1421850805087131977,433508,1421850805087131977,fcu,-0.0111660042563,-0.00976718492403,-0.756454597815,0.653877942656,0.0,0.0,0.0,0.0,0.0,0.0,0.0,0.0,0.0,0.150272848597,0.129590696961,-0.0827286065445,0.000169,0.0,0.0,0.0,0.000169,0.0,0.0,0.0,0.000169,0.34335,0.0,10.40841,0.006889,0.0,0.0,0.0,0.006889,0.0,0.0,0.0,0.006889
1421850805089131832,433509,1421850805089131832,fcu,-0.0111660042563,-0.00976718492403,-0.756454597815,0.653877942656,0.0,0.0,0.0,0.0,0.0,0.0,0.0,0.0,0.0,-0.00287979326579,0.0301069295969,0.000261799387799,0.000169,0.0,0.0,0.0,0.000169,0.0,0.0,0.0,0.000169,0.37278,-0.03924,10.3986,0.006889,0.0,0.0,0.0,0.006889,0.0,0.0,0.0,0.006889
1421850805093132019,433511,1421850805093132019,fcu,-0.0113461403895,-0.00969222012046,-0.756455313691,0.653875129024,0.0,0.0,0.0,0.0,0.0,0.0,0.0,0.0,0.0,-0.225147473507,-0.0466002910282,0.0515744793964,0.000169,0.0,0.0,0.0,0.000169,0.0,0.0,0.0,0.000169,0.37278,-0.03924,10.3986,0.006889,0.0,0.0,0.0,0.006889,0.0,0.0,0.0,0.006889
1421850805095131874,433512,1421850805095131874,fcu,-0.0114594286272,-0.00956119367504,-0.756399929705,0.653939149626,0.0,0.0,0.0,0.0,0.0,0.0,0.0,0.0,0.0,-0.129852496348,-0.0285361332701,0.0759218224618,0.000169,0.0,0.0,0.0,0.000169,0.0,0.0,0.0,0.000169,0.27468,0.06867,10.29069,0.006889,0.0,0.0,0.0,0.006889,0.0,0.0,0.0,0.006889
1421850805097133875,433513,1421850805097133875,fcu,-0.0114032017157,-0.0096262069043,-0.756456156617,0.653874136396,0.0,0.0,0.0,0.0,0.0,0.0,0.0,0.0,0.0,0.168075206967,0.0369137136797,-0.0979129710369,0.000169,0.0,0.0,0.0,0.000169,0.0,0.0,0.0,0.000169,0.27468,0.06867,10.29069,0.006889,0.0,0.0,0.0,0.006889,0.0,0.0,0.0,0.006889
1421850805099133968,433514,1421850805099133968,fcu,-0.0112890789769,-0.00975823326282,-0.756454465005,0.653876116672,0.0,0.0,0.0,0.0,0.0,0.0,0.0,0.0,0.0,0.0392699081699,-0.0238237442897,-0.0102101761242,0.000169,0.0,0.0,0.0,0.000169,0.0,0.0,0.0,0.000169,0.34335,-0.08829,10.55556,0.006889,0.0,0.0,0.0,0.006889,0.0,0.0,0.0,0.006889
1421850805105134010,433517,1421850805105134010,fcu,-0.0116395700682,-0.00948624444234,-0.756400623864,0.653936256674,0.0,0.0,0.0,0.0,0.0,0.0,0.0,0.0,0.0,-0.122260314102,-0.0109955742876,0.00209439510239,0.000169,0.0,0.0,0.0,0.000169,0.0,0.0,0.0,0.000169,0.33354,0.02943,10.32993,0.006889,0.0,0.0,0.0,0.006889,0.0,0.0,0.0,0.006889
1421850805107133865,433518,1421850805107133865,fcu,-0.0116403978549,-0.00948522866211,-0.756457687688,0.653870245778,0.0,0.0,0.0,0.0,0.0,0.0,0.0,0.0,0.0,-0.106552350834,-0.0183259571459,-0.062570053684,0.000169,0.0,0.0,0.0,0.000169,0.0,0.0,0.0,0.000169,0.28449,0.08829,10.32993,0.006889,0.0,0.0,0.0,0.006889,0.0,0.0,0.0,0.006889
1421850805109135866,433519,1421850805109135866,fcu,-0.0115262757915,-0.00961725529,-0.756456020682,0.653872267451,0.0,0.0,0.0,0.0,0.0,0.0,0.0,0.0,0.0,0.207868713913,-0.06780604144,-0.011780972451,0.000169,0.0,0.0,0.0,0.000169,0.0,0.0,0.0,0.000169,0.28449,0.08829,10.32993,0.006889,0.0,0.0,0.0,0.006889,0.0,0.0,0.0,0.006889
1421850805111135960,433520,1421850805111135960,fcu,-0.0115922885401,-0.00967431689192,-0.756455041821,0.653871391133,0.0,0.0,0.0,0.0,0.0,0.0,0.0,0.0,0.0,0.0408407044967,-0.0617846555206,-0.0120427718388,0.000169,0.0,0.0,0.0,0.000169,0.0,0.0,0.0,0.000169,0.32373,-0.08829,10.48689,0.006889,0.0,0.0,0.0,0.006889,0.0,0.0,0.0,0.006889
1421850805115135908,433522,1421850805115135908,fcu,-0.0115735623648,-0.00942917683773,-0.756401586928,0.653937139618,0.0,0.0,0.0,0.0,0.0,0.0,0.0,0.0,0.0,-0.260228591472,-0.0185877565337,-0.0204203522483,0.000169,0.0,0.0,0.0,0.000169,0.0,0.0,0.0,0.000169,0.28449,0.07848,10.29069,0.006889,0.0,0.0,0.0,0.006889,0.0,0.0,0.0,0.006889
1421850805117136002,433523,1421850805117136002,fcu,-0.0116314461479,-0.0093621533116,-0.756459470711,0.653870116092,0.0,0.0,0.0,0.0,0.0,0.0,0.0,0.0,0.0,-0.174620191662,-0.13796827737,-0.0822050077689,0.000169,0.0,0.0,0.0,0.000169,0.0,0.0,0.0,0.000169,0.28449,0.07848,10.29069,0.006889,0.0,0.0,0.0,0.006889,0.0,0.0,0.0,0.006889
1421850805119135857,433524,1421850805119135857,fcu,-0.0116501879775,-0.00960728706544,-0.756512941259,0.653804361307,0.0,0.0,0.0,0.0,0.0,0.0,0.0,0.0,0.0,0.231168859427,-0.173311194723,-0.0722566310326,0.000169,0.0,0.0,0.0,0.000169,0.0,0.0,0.0,0.000169,0.28449,0.07848,10.29069,0.006889,0.0,0.0,0.0,0.006889,0.0,0.0,0.0,0.006889
1421850805121137857,433525,1421850805121137857,fcu,-0.0117251679297,-0.00978741669765,-0.756510124827,0.653803608086,0.0,0.0,0.0,0.0,0.0,0.0,0.0,0.0,0.0,0.200276531666,-0.205512519422,-0.0400553063333,0.000169,0.0,0.0,0.0,0.000169,0.0,0.0,0.0,0.000169,0.2943,-0.02943,10.45746,0.006889,0.0,0.0,0.0,0.006889,0.0,0.0,0.0,0.006889
1421850805123137951,433526,1421850805123137951,fcu,-0.0117251679297,-0.00978741669765,-0.756510124827,0.653803608086,0.0,0.0,0.0,0.0,0.0,0.0,0.0,0.0,0.0,0.0209439510239,0.11780972451,0.00340339204139,0.000169,0.0,0.0,0.0,0.000169,0.0,0.0,0.0,0.000169,0.2943,-0.02943,10.45746,0.006889,0.0,0.0,0.0,0.006889,0.0,0.0,0.0,0.006889
1421850805131137848,433530,1421850805131137848,fcu,-0.0120185687762,-0.00958144907411,-0.756455461318,0.653864576866,0.0,0.0,0.0,0.0,0.0,0.0,0.0,0.0,0.0,0.204727121259,-0.126710903695,-0.0473856891916,0.000169,0.0,0.0,0.0,0.000169,0.0,0.0,0.0,0.000169,0.33354,0.06867,10.36917,0.006889,0.0,0.0,0.0,0.006889,0.0,0.0,0.0,0.006889
1421850805133139849,433531,1421850805133139849,fcu,-0.0119704599315,-0.00977053679057,-0.756452785574,0.653865756786,0.0,0.0,0.0,0.0,0.0,0.0,0.0,0.0,0.0,0.0856083998103,-0.0390081087821,-0.00654498469498,0.000169,0.0,0.0,0.0,0.000169,0.0,0.0,0.0,0.000169,0.33354,0.06867,10.36917,0.006889,0.0,0.0,0.0,0.006889,0.0,0.0,0.0,0.006889
1421850805135139942,433532,1421850805135139942,fcu,-0.0117715852087,-0.0096003794344,-0.756398680456,0.653934475846,0.0,0.0,0.0,0.0,0.0,0.0,0.0,0.0,0.0,0.0604756585816,0.232216056978,0.0921533845053,0.000169,0.0,0.0,0.0,0.000169,0.0,0.0,0.0,0.000169,0.3924,-0.02943,10.38879,0.006889,0.0,0.0,0.0,0.006889,0.0,0.0,0.0,0.006889
1421850805137140036,433533,1421850805137140036,fcu,-0.0117618171692,-0.00947833006451,-0.756343415554,0.654000350661,0.0,0.0,0.0,0.0,0.0,0.0,0.0,0.0,0.0,-0.209177710852,0.142418866963,0.103672557568,0.000169,0.0,0.0,0.0,0.000169,0.0,0.0,0.0,0.000169,0.3924,-0.02943,10.38879,0.006889,0.0,0.0,0.0,0.006889,0.0,0.0,0.0,0.006889
1421850805139139891,433534,1421850805139139891,fcu,-0.0120079661114,-0.00946046996621,-0.756343133426,0.653996462358,0.0,0.0,0.0,0.0,0.0,0.0,0.0,0.0,0.0,-0.151320046148,-0.219911485751,-0.0615228561328,0.000169,0.0,0.0,0.0,0.000169,0.0,0.0,0.0,0.000169,0.32373,0.10791,10.28088,0.006889,0.0,0.0,0.0,0.006889,0.0,0.0,0.0,0.006889
1421850805151141882,433540,1421850805151141882,fcu,-0.0123128215846,-0.00937445771702,-0.756457797722,0.653859399438,0.0,0.0,0.0,0.0,0.0,0.0,0.0,0.0,0.0,-0.17959438003,-0.201847327993,-0.126449104307,0.000169,0.0,0.0,0.0,0.000169,0.0,0.0,0.0,0.000169,0.38259,0.05886,10.33974,0.006889,0.0,0.0,0.0,0.006889,0.0,0.0,0.0,0.006889
1421850805153141975,433541,1421850805153141975,fcu,-0.0126266183697,-0.00941141321301,-0.756570639055,0.653722312553,0.0,0.0,0.0,0.0,0.0,0.0,0.0,0.0,0.0,-0.0887499924639,-0.214937297383,-0.129328897573,0.000169,0.0,0.0,0.0,0.000169,0.0,0.0,0.0,0.000169,0.38259,0.05886,10.33974,0.006889,0.0,0.0,0.0,0.006889,0.0,0.0,0.0,0.006889
1421850805157143831,433543,1421850805157143831,fcu,-0.012510856272,-0.00954564325747,-0.756454876957,0.653856542598,0.0,0.0,0.0,0.0,0.0,0.0,0.0,0.0,0.0,0.101316363078,0.336150413934,0.132470490226,0.000169,0.0,0.0,0.0,0.000169,0.0,0.0,0.0,0.000169,0.33354,-0.11772,10.37898,0.006889,0.0,0.0,0.0,0.006889,0.0,0.0,0.0,0.006889
1421850805159143925,433544,1421850805159143925,fcu,-0.0122549376578,-0.00944154055836,-0.756399913795,0.653926482279,0.0,0.0,0.0,0.0,0.0,0.0,0.0,0.0,0.0,-0.0238237442897,0.264417381677,0.105766952671,0.000169,0.0,0.0,0.0,0.000169,0.0,0.0,0.0,0.000169,0.40221,-0.04905,10.40841,0.006889,0.0,0.0,0.0,0.006889,0.0,0.0,0.0,0.006889
1421850805167143822,433548,1421850805167143822,fcu,-0.0128238452793,-0.00958368317758,-0.75651064515,0.653785397346,0.0,0.0,0.0,0.0,0.0,0.0,0.0,0.0,0.0,0.234048652692,0.30211649352,0.0568104671524,0.000169,0.0,0.0,0.0,0.000169,0.0,0.0,0.0,0.000169,0.24525,0.0,10.24164,0.006889,0.0,0.0,0.0,0.006889,0.0,0.0,0.0,0.006889
1421850805169145823,433549,1421850805169145823,fcu,-0.0124261347886,-0.00924351520271,-0.756402359663,0.653923251534,0.0,0.0,0.0,0.0,0.0,0.0,0.0,0.0,0.0,-0.0856083998103,0.246091424531,0.114929931244,0.000169,0.0,0.0,0.0,0.000169,0.0,0.0,0.0,0.000169,0.37278,-0.12753,10.4967,0.006889,0.0,0.0,0.0,0.006889,0.0,0.0,0.0,0.006889
1421850805173146009,433551,1421850805173146009,fcu,-0.0127872020689,-0.00909250084003,-0.756460720822,0.653850894123,0.0,0.0,0.0,0.0,0.0,0.0,0.0,0.0,0.0,-0.265464579228,-0.317824456788,-0.148178453494,0.000169,0.0,0.0,0.0,0.000169,0.0,0.0,0.0,0.000169,0.25506,0.07848,10.21221,0.006889,0.0,0.0,0.0,0.006889,0.0,0.0,0.0,0.006889
1421850805175145864,433552,1421850805175145864,fcu,-0.0131188924101,-0.00937552200137,-0.756570021971,0.653713848794,0.0,0.0,0.0,0.0,0.0,0.0,0.0,0.0,0.0,-0.0497418836818,-0.338768407812,-0.130376095124,0.000169,0.0,0.0,0.0,0.000169,0.0,0.0,0.0,0.000169,0.25506,0.07848,10.21221,0.006889,0.0,0.0,0.0,0.006889,0.0,0.0,0.0,0.006889
1421850805179146051,433554,1421850805179146051,fcu,-0.0126257970209,-0.00941251505749,-0.75651358814,0.653788333307,0.0,0.0,0.0,0.0,0.0,0.0,0.0,0.0,0.0,0.158912228394,0.466526509058,0.0591666616426,0.000169,0.0,0.0,0.0,0.000169,0.0,0.0,0.0,0.000169,0.30411,-0.06867,10.45746,0.006889,0.0,0.0,0.0,0.006889,0.0,0.0,0.0,0.006889
1421850805181148052,433555,1421850805181148052,fcu,-0.012351187172,-0.00906337053899,-0.75640505176,0.65392407905,0.0,0.0,0.0,0.0,0.0,0.0,0.0,0.0,0.0,-0.216246294322,0.0897971900151,0.126710903695,0.000169,0.0,0.0,0.0,0.000169,0.0,0.0,0.0,0.000169,0.30411,-0.06867,10.45746,0.006889,0.0,0.0,0.0,0.006889,0.0,0.0,0.0,0.006889
1421850805183147907,433556,1421850805183147907,fcu,-0.0124653182656,-0.00893135281529,-0.756406622096,0.653921913402,0.0,0.0,0.0,0.0,0.0,0.0,0.0,0.0,0.0,-0.295309709437,-0.0939859802199,-0.0350811179651,0.000169,0.0,0.0,0.0,0.000169,0.0,0.0,0.0,0.000169,0.27468,0.12753,10.25145,0.006889,0.0,0.0,0.0,0.006889,0.0,0.0,0.0,0.006889
1421850805185148001,433557,1421850805185148001,fcu,-0.0129770805375,-0.00913947938061,-0.75651667277,0.653781759549,0.0,0.0,0.0,0.0,0.0,0.0,0.0,0.0,0.0,-0.0646644487864,-0.420449816805,-0.168598805743,0.000169,0.0,0.0,0.0,0.000169,0.0,0.0,0.0,0.000169,0.27468,0.12753,10.25145,0.006889,0.0,0.0,0.0,0.006889,0.0,0.0,0.0,0.006889
1421850805187147856,433558,1421850805187147856,fcu,-0.0131091117441,-0.00925359223615,-0.756514754806,0.653779739653,0.0,0.0,0.0,0.0,0.0,0.0,0.0,0.0,0.0,-0.0411025038845,-0.216246294322,-0.0123045712266,0.000169,0.0,0.0,0.0,0.000169,0.0,0.0,0.0,0.000169,0.27468,0.12753,10.25145,0.006889,0.0,0.0,0.0,0.006889,0.0,0.0,0.0,0.006889
1421850805189147949,433559,1421850805189147949,fcu,-0.0127488668656,-0.00940355295416,-0.7565134364,0.653786249574,0.0,0.0,0.0,0.0,0.0,0.0,0.0,0.0,0.0,0.15577063574,0.268344372494,-0.0188495559215,0.000169,0.0,0.0,0.0,0.000169,0.0,0.0,0.0,0.000169,0.22563,0.02943,10.32012,0.006889,0.0,0.0,0.0,0.006889,0.0,0.0,0.0,0.006889
1421850805191148043,433560,1421850805191148043,fcu,-0.0124848018971,-0.00917532774013,-0.756517282859,0.653790137443,0.0,0.0,0.0,0.0,0.0,0.0,0.0,0.0,0.0,-0.00602138591938,0.351858377202,-0.00811578102177,0.000169,0.0,0.0,0.0,0.000169,0.0,0.0,0.0,0.000169,0.22563,0.02943,10.32012,0.006889,0.0,0.0,0.0,0.006889,0.0,0.0,0.0,0.006889
1421850805193150043,433561,1421850805193150043,fcu,-0.0125418558021,-0.0091093091181,-0.756518080677,0.653789045449,0.0,0.0,0.0,0.0,0.0,0.0,0.0,0.0,0.0,-0.127758101246,0.0939859802199,0.0712094334814,0.000169,0.0,0.0,0.0,0.000169,0.0,0.0,0.0,0.000169,0.33354,0.05886,10.32993,0.006889,0.0,0.0,0.0,0.006889,0.0,0.0,0.0,0.006889
1421850805195149899,433562,1421850805195149899,fcu,-0.0129778780581,-0.0091383468819,-0.756573723111,0.653715738525,0.0,0.0,0.0,0.0,0.0,0.0,0.0,0.0,0.0,-0.265988178004,-0.423591409459,-0.132470490226,0.000169,0.0,0.0,0.0,0.000169,0.0,0.0,0.0,0.000169,0.33354,0.05886,10.32993,0.006889,0.0,0.0,0.0,0.006889,0.0,0.0,0.0,0.006889
1421850805197149992,433563,1421850805197149992,fcu,-0.0132998186162,-0.00929936546244,-0.756627722413,0.653644495351,0.0,0.0,0.0,0.0,0.0,0.0,0.0,0.0,0.0,-0.0866555973615,-0.435110582522,-0.126449104307,0.000169,0.0,0.0,0.0,0.000169,0.0,0.0,0.0,0.000169,0.20601,0.20601,10.05525,0.006889,0.0,0.0,0.0,0.006889,0.0,0.0,0.0,0.006889
1421850805199149847,433564,1421850805199149847,fcu,-0.0132517612277,-0.00948846634146,-0.75662510354,0.653645785211,0.0,0.0,0.0,0.0,0.0,0.0,0.0,0.0,0.0,0.372540528838,-0.0460766922527,-0.0191113553093,0.000169,0.0,0.0,0.0,0.000169,0.0,0.0,0.0,0.000169,0.20601,0.20601,10.05525,0.006889,0.0,0.0,0.0,0.006889,0.0,0.0,0.0,0.006889
1421850805201149940,433565,1421850805201149940,fcu,-0.013071652839,-0.00956347778989,-0.756624430226,0.653649098041,0.0,0.0,0.0,0.0,0.0,0.0,0.0,0.0,0.0,0.330914426178,0.125663706144,-0.0416261026601,0.000169,0.0,0.0,0.0,0.000169,0.0,0.0,0.0,0.000169,0.27468,0.02943,10.34955,0.006889,0.0,0.0,0.0,0.006889,0.0,0.0,0.0,0.006889
1421850805203150034,433566,1421850805203150034,fcu,-0.0128727561285,-0.00939346755334,-0.756570333645,0.653718123633,0.0,0.0,0.0,0.0,0.0,0.0,0.0,0.0,0.0,-0.0397935069455,0.318086256176,0.103410758181,0.000169,0.0,0.0,0.0,0.000169,0.0,0.0,0.0,0.000169,0.27468,0.02943,10.34955,0.006889,0.0,0.0,0.0,0.006889,0.0,0.0,0.0,0.006889
1421850805219153881,433574,1421850805219153881,fcu,-0.0131775642686,-0.00930719899916,-0.756684920125,0.653580644988,0.0,0.0,0.0,0.0,0.0,0.0,0.0,0.0,0.0,-0.121213116551,-0.125925505531,-0.0230383461263,0.000169,0.0,0.0,0.0,0.000169,0.0,0.0,0.0,0.000169,0.38259,0.02943,10.35936,0.006889,0.0,0.0,0.0,0.006889,0.0,0.0,0.0,0.006889
1421850805221153975,433575,1421850805221153975,fcu,-0.0131295231925,-0.00949630408513,-0.756682300579,0.653581924337,0.0,0.0,0.0,0.0,0.0,0.0,0.0,0.0,0.0,0.11414453308,-0.0963421747101,-0.0212057504117,0.000169,0.0,0.0,0.0,0.000169,0.0,0.0,0.0,0.000169,0.25506,0.11772,10.06506,0.006889,0.0,0.0,0.0,0.006889,0.0,0.0,0.0,0.006889
1421850805225153923,433577,1421850805225153923,fcu,-0.0130064568062,-0.00950529832679,-0.756682457574,0.653584072468,0.0,0.0,0.0,0.0,0.0,0.0,0.0,0.0,0.0,-0.0808960108299,0.0526216769476,0.0767072206252,0.000169,0.0,0.0,0.0,0.000169,0.0,0.0,0.0,0.000169,0.38259,-0.05886,10.42803,0.006889,0.0,0.0,0.0,0.006889,0.0,0.0,0.0,0.006889
1421850805227154016,433578,1421850805227154016,fcu,-0.0130634927266,-0.00943926528929,-0.756683284187,0.653582934952,0.0,0.0,0.0,0.0,0.0,0.0,0.0,0.0,0.0,-0.231692458202,0.120427718388,0.0536688744988,0.000169,0.0,0.0,0.0,0.000169,0.0,0.0,0.0,0.000169,0.38259,-0.05886,10.42803,0.006889,0.0,0.0,0.0,0.006889,0.0,0.0,0.0,0.006889
1421850805231155872,433580,1421850805231155872,fcu,-0.013233793395,-0.00924232064905,-0.756628690998,0.653645523338,0.0,0.0,0.0,0.0,0.0,0.0,0.0,0.0,0.0,-0.157341432067,-0.0460766922527,-0.0193731546971,0.000169,0.0,0.0,0.0,0.000169,0.0,0.0,0.0,0.000169,0.31392,0.08829,10.13373,0.006889,0.0,0.0,0.0,0.006889,0.0,0.0,0.0,0.006889
1421850805233155966,433581,1421850805233155966,fcu,-0.0131775642686,-0.00930719899916,-0.756684920125,0.653580644988,0.0,0.0,0.0,0.0,0.0,0.0,0.0,0.0,0.0,0.156556033904,-0.0874409955249,-0.0795870138909,0.000169,0.0,0.0,0.0,0.000169,0.0,0.0,0.0,0.000169,0.31392,0.08829,10.13373,0.006889,0.0,0.0,0.0,0.006889,0.0,0.0,0.0,0.006889
1421850805235155821,433582,1421850805235155821,fcu,-0.0131303518514,-0.00949515828193,-0.756739333481,0.65351588886,0.0,0.0,0.0,0.0,0.0,0.0,0.0,0.0,0.0,0.0416261026601,-0.0332485222505,-0.0149225651046,0.000169,0.0,0.0,0.0,0.000169,0.0,0.0,0.0,0.000169,0.31392,-0.0981,10.38879,0.006889,0.0,0.0,0.0,0.006889,0.0,0.0,0.0,0.006889
1421850805237155914,433583,1421850805237155914,fcu,-0.0131295231925,-0.00949630408513,-0.756682300579,0.653581924337,0.0,0.0,0.0,0.0,0.0,0.0,0.0,0.0,0.0,-0.0777544181763,-0.0180641577581,0.0492182849062,0.000169,0.0,0.0,0.0,0.000169,0.0,0.0,0.0,0.000169,0.31392,-0.0981,10.38879,0.006889,0.0,0.0,0.0,0.006889,0.0,0.0,0.0,0.006889
1421850805243157864,433586,1421850805243157864,fcu,-0.0132916354091,-0.00917513242551,-0.756686533012,0.653578335114,0.0,0.0,0.0,0.0,0.0,0.0,0.0,0.0,0.0,-0.0261799387799,0.0,-0.112050137978,0.000169,0.0,0.0,0.0,0.000169,0.0,0.0,0.0,0.000169,0.24525,0.05886,10.2024,0.006889,0.0,0.0,0.0,0.006889,0.0,0.0,0.0,0.006889
1421850805245157957,433587,1421850805245157957,fcu,-0.0131783764247,-0.0093060490043,-0.756741952914,0.653514609283,0.0,0.0,0.0,0.0,0.0,0.0,0.0,0.0,0.0,0.165719012477,-0.0301069295969,-0.0329867228627,0.000169,0.0,0.0,0.0,0.000169,0.0,0.0,0.0,0.000169,0.24525,0.05886,10.2024,0.006889,0.0,0.0,0.0,0.006889,0.0,0.0,0.0,0.006889
1421850805253160000,433591,1421850805253160000,fcu,-0.0132916354091,-0.00917513242551,-0.756686533012,0.653578335114,0.0,0.0,0.0,0.0,0.0,0.0,0.0,0.0,0.0,-0.0112573736754,-0.00287979326579,-0.106028752059,0.000169,0.0,0.0,0.0,0.000169,0.0,0.0,0.0,0.000169,0.27468,0.0981,10.21221,0.006889,0.0,0.0,0.0,0.006889,0.0,0.0,0.0,0.006889
1421850805255159855,433592,1421850805255159855,fcu,-0.0132264008521,-0.00911693903343,-0.756744523625,0.653513327873,0.0,0.0,0.0,0.0,0.0,0.0,0.0,0.0,0.0,0.0544542726622,-0.0243473430653,-0.069115038379,0.000169,0.0,0.0,0.0,0.000169,0.0,0.0,0.0,0.000169,0.27468,0.0981,10.21221,0.006889,0.0,0.0,0.0,0.006889,0.0,0.0,0.0,0.006889
1421850805267161846,433598,1421850805267161846,fcu,-0.0133600820373,-0.00922867421622,-0.756856649519,0.653379179236,0.0,0.0,0.0,0.0,0.0,0.0,0.0,0.0,0.0,0.0617846555206,-0.114929931244,-0.0908443875663,0.000169,0.0,0.0,0.0,0.000169,0.0,0.0,0.0,0.000169,0.28449,0.06867,10.3005,0.006889,0.0,0.0,0.0,0.006889,0.0,0.0,0.0,0.006889
1421850805269161940,433599,1421850805269161940,fcu,-0.0133789625725,-0.00947364612302,-0.756910077384,0.653313391983,0.0,0.0,0.0,0.0,0.0,0.0,0.0,0.0,0.0,0.00209439510239,-0.0623082542962,0.0167551608191,0.000169,0.0,0.0,0.0,0.000169,0.0,0.0,0.0,0.000169,0.28449,0.06867,10.3005,0.006889,0.0,0.0,0.0,0.006889,0.0,0.0,0.0,0.006889
1421850805283164024,433606,1421850805283164024,fcu,-0.013729269527,-0.00920159517292,-0.756856157942,0.653372477221,0.0,0.0,0.0,0.0,0.0,0.0,0.0,0.0,0.0,-0.145560459616,0.266773576167,0.143727863902,0.000169,0.0,0.0,0.0,0.000169,0.0,0.0,0.0,0.000169,0.33354,-0.02943,10.46727,0.006889,0.0,0.0,0.0,0.006889,0.0,0.0,0.0,0.006889
1421850805285163879,433607,1421850805285163879,fcu,-0.0137104341206,-0.00895665102541,-0.756802639025,0.653438266375,0.0,0.0,0.0,0.0,0.0,0.0,0.0,0.0,0.0,-0.127758101246,-0.0306305283725,-0.0379609112309,0.000169,0.0,0.0,0.0,0.000169,0.0,0.0,0.0,0.000169,0.33354,-0.02943,10.46727,0.006889,0.0,0.0,0.0,0.006889,0.0,0.0,0.0,0.006889
1421850805293165922,433611,1421850805293165922,fcu,-0.0138531333877,-0.00919136000386,-0.756913005356,0.653304149626,0.0,0.0,0.0,0.0,0.0,0.0,0.0,0.0,0.0,0.0314159265359,0.061261056745,0.0272271363311,0.000169,0.0,0.0,0.0,0.000169,0.0,0.0,0.0,0.000169,0.28449,-0.07848,10.29069,0.006889,0.0,0.0,0.0,0.006889,0.0,0.0,0.0,0.006889
1421850805295166016,433612,1421850805295166016,fcu,-0.0137690088083,-0.0088882044922,-0.756917452514,0.65330497036,0.0,0.0,0.0,0.0,0.0,0.0,0.0,0.0,0.0,-0.148963851658,0.176976386152,-0.0308923277603,0.000169,0.0,0.0,0.0,0.000169,0.0,0.0,0.0,0.000169,0.35316,0.0,10.48689,0.006889,0.0,0.0,0.0,0.006889,0.0,0.0,0.0,0.006889
1421850805307168007,433618,1421850805307168007,fcu,-0.0138928443322,-0.00887795513201,-0.756974293049,0.653236626692,0.0,0.0,0.0,0.0,0.0,0.0,0.0,0.0,0.0,-0.14032447186,0.0452912940893,0.0267035375555,0.000169,0.0,0.0,0.0,0.000169,0.0,0.0,0.0,0.000169,0.36297,-0.03924,10.58499,0.006889,0.0,0.0,0.0,0.006889,0.0,0.0,0.0,0.006889
1421850805309167862,433619,1421850805309167862,fcu,-0.0142627940372,-0.00884956741924,-0.757030781141,0.653163573899,0.0,0.0,0.0,0.0,0.0,0.0,0.0,0.0,0.0,-0.206297917586,-0.332747021893,-0.137706477982,0.000169,0.0,0.0,0.0,0.000169,0.0,0.0,0.0,0.000169,0.33354,0.07848,10.3986,0.006889,0.0,0.0,0.0,0.006889,0.0,0.0,0.0,0.006889
1421850805313169956,433621,1421850805313169956,fcu,-0.0144047627634,-0.00908538824069,-0.757084122727,0.653095390923,0.0,0.0,0.0,0.0,0.0,0.0,0.0,0.0,0.0,0.174358392274,-0.0934623814443,0.0429350995991,0.000169,0.0,0.0,0.0,0.000169,0.0,0.0,0.0,0.000169,0.27468,-0.00981,10.35936,0.006889,0.0,0.0,0.0,0.006889,0.0,0.0,0.0,0.006889
1421850805315170050,433622,1421850805315170050,fcu,-0.0141487952714,-0.00898169408049,-0.75702922507,0.653166053278,0.0,0.0,0.0,0.0,0.0,0.0,0.0,0.0,0.0,0.0434586983747,0.225671072283,0.0484328867428,0.000169,0.0,0.0,0.0,0.000169,0.0,0.0,0.0,0.000169,0.27468,-0.00981,10.35936,0.006889,0.0,0.0,0.0,0.006889,0.0,0.0,0.0,0.006889
1421850805325171947,433627,1421850805325171947,fcu,-0.0143485679447,-0.00915020414537,-0.757140317546,0.653030575018,0.0,0.0,0.0,0.0,0.0,0.0,0.0,0.0,0.0,0.178285383091,0.161530222272,0.0575958653158,0.000169,0.0,0.0,0.0,0.000169,0.0,0.0,0.0,0.000169,0.30411,0.06867,10.32993,0.006889,0.0,0.0,0.0,0.006889,0.0,0.0,0.0,0.006889
1421850805327172041,433628,1421850805327172041,fcu,-0.0143485679447,-0.00915020414537,-0.757140317546,0.653030575018,0.0,0.0,0.0,0.0,0.0,0.0,0.0,0.0,0.0,0.157603231455,0.161530222272,0.0350811179651,0.000169,0.0,0.0,0.0,0.000169,0.0,0.0,0.0,0.000169,0.30411,0.06867,10.32993,0.006889,0.0,0.0,0.0,0.006889,0.0,0.0,0.0,0.006889
1421850805329171896,433629,1421850805329171896,fcu,-0.0143220922826,-0.00877975477321,-0.757202522081,0.65296411397,0.0,0.0,0.0,0.0,0.0,0.0,0.0,0.0,0.0,-0.20341812432,0.0159697626557,-0.0701622359302,0.000169,0.0,0.0,0.0,0.000169,0.0,0.0,0.0,0.000169,0.42183,-0.01962,10.61442,0.006889,0.0,0.0,0.0,0.006889,0.0,0.0,0.0,0.006889
1421850805331171989,433630,1421850805331171989,fcu,-0.0144451472163,-0.00877066419963,-0.757202345946,0.65296172971,0.0,0.0,0.0,0.0,0.0,0.0,0.0,0.0,0.0,-0.216246294322,-0.0853466004225,-0.117024326346,0.000169,0.0,0.0,0.0,0.000169,0.0,0.0,0.0,0.000169,0.42183,-0.01962,10.61442,0.006889,0.0,0.0,0.0,0.006889,0.0,0.0,0.0,0.006889
1421850805333171844,433631,1421850805333171844,fcu,-0.0145879564157,-0.00900515947871,-0.757312661282,0.652827413405,0.0,0.0,0.0,0.0,0.0,0.0,0.0,0.0,0.0,0.0570722665402,-0.292953514947,-0.154723438189,0.000169,0.0,0.0,0.0,0.000169,0.0,0.0,0.0,0.000169,0.42183,-0.01962,10.61442,0.006889,0.0,0.0,0.0,0.006889,0.0,0.0,0.0,0.006889
1421850805335171938,433632,1421850805335171938,fcu,-0.0147110089211,-0.00899604749031,-0.75731248155,0.652824986221,0.0,0.0,0.0,0.0,0.0,0.0,0.0,0.0,0.0,-0.0795870138909,-0.0984365698125,0.0429350995991,0.000169,0.0,0.0,0.0,0.000169,0.0,0.0,0.0,0.000169,0.33354,0.0,10.44765,0.006889,0.0,0.0,0.0,0.006889,0.0,0.0,0.0,0.006889
1421850805337173939,433633,1421850805337173939,fcu,-0.0145871705117,-0.00900643248377,-0.757255688459,0.652893498916,0.0,0.0,0.0,0.0,0.0,0.0,0.0,0.0,0.0,0.114406332468,0.149749249821,0.0620464549084,0.000169,0.0,0.0,0.0,0.000169,0.0,0.0,0.0,0.000169,0.33354,0.0,10.44765,0.006889,0.0,0.0,0.0,0.006889,0.0,0.0,0.0,0.006889
1421850805339174032,433634,1421850805339174032,fcu,-0.0145780684011,-0.00888336754685,-0.757257428365,0.652893370229,0.0,0.0,0.0,0.0,0.0,0.0,0.0,0.0,0.0,-0.0719948316448,0.111002940427,-0.00602138591938,0.000169,0.0,0.0,0.0,0.000169,0.0,0.0,0.0,0.000169,0.33354,0.0,10.44765,0.006889,0.0,0.0,0.0,0.006889,0.0,0.0,0.0,0.006889
1421850805341173887,433635,1421850805341173887,fcu,-0.0146350440404,-0.00881728433606,-0.757258200701,0.652892095567,0.0,0.0,0.0,0.0,0.0,0.0,0.0,0.0,0.0,-0.113882733693,-0.0748746249106,-0.0788016157275,0.000169,0.0,0.0,0.0,0.000169,0.0,0.0,0.0,0.000169,0.38259,0.0,10.52613,0.006889,0.0,0.0,0.0,0.006889,0.0,0.0,0.0,0.006889
1421850805343173981,433636,1421850805343173981,fcu,-0.014758865731,-0.00880689518128,-0.757314992874,0.652823571915,0.0,0.0,0.0,0.0,0.0,0.0,0.0,0.0,0.0,-0.172002197784,-0.0725184304204,-0.11780972451,0.000169,0.0,0.0,0.0,0.000169,0.0,0.0,0.0,0.000169,0.38259,0.0,10.52613,0.006889,0.0,0.0,0.0,0.006889,0.0,0.0,0.0,0.006889
1421850805345173836,433637,1421850805345173836,fcu,-0.0148819175968,-0.00879778324024,-0.757314810757,0.652821112516,0.0,0.0,0.0,0.0,0.0,0.0,0.0,0.0,0.0,-0.164410015538,0.00418879020479,0.106552350834,0.000169,0.0,0.0,0.0,0.000169,0.0,0.0,0.0,0.000169,0.38259,0.0,10.52613,0.006889,0.0,0.0,0.0,0.006889,0.0,0.0,0.0,0.006889
1421850805347173929,433638,1421850805347173929,fcu,-0.0148811497887,-0.00879908189905,-0.757257838484,0.652887198215,0.0,0.0,0.0,0.0,0.0,0.0,0.0,0.0,0.0,-0.0180641577581,0.0136135681656,0.0617846555206,0.000169,0.0,0.0,0.0,0.000169,0.0,0.0,0.0,0.000169,0.30411,0.0,10.3986,0.006889,0.0,0.0,0.0,0.006889,0.0,0.0,0.0,0.006889
1421850805349175930,433639,1421850805349175930,fcu,-0.014758865731,-0.00880689518128,-0.757314992874,0.652823571915,0.0,0.0,0.0,0.0,0.0,0.0,0.0,0.0,0.0,0.0712094334814,0.0950331777711,-0.0240855436775,0.000169,0.0,0.0,0.0,0.000169,0.0,0.0,0.0,0.000169,0.30411,0.0,10.3986,0.006889,0.0,0.0,0.0,0.006889,0.0,0.0,0.0,0.006889
1421850805351176023,433640,1421850805351176023,fcu,-0.0148819175968,-0.00879778324024,-0.757314810757,0.652821112516,0.0,0.0,0.0,0.0,0.0,0.0,0.0,0.0,0.0,-0.0861319985859,-0.10471975512,-0.0301069295969,0.000169,0.0,0.0,0.0,0.000169,0.0,0.0,0.0,0.000169,0.30411,0.0,10.3986,0.006889,0.0,0.0,0.0,0.006889,0.0,0.0,0.0,0.006889
1421850805357175827,433643,1421850805357175827,fcu,-0.0151280200313,-0.00877955945422,-0.757314441751,0.65281612929,0.0,0.0,0.0,0.0,0.0,0.0,0.0,0.0,0.0,-0.121998514714,-0.00811578102177,0.0620464549084,0.000169,0.0,0.0,0.0,0.000169,0.0,0.0,0.0,0.000169,0.32373,0.02943,10.36917,0.006889,0.0,0.0,0.0,0.006889,0.0,0.0,0.0,0.006889
1421850805359175920,433644,1421850805359175920,fcu,-0.0151287861348,-0.008778239252,-0.757371407822,0.652750038652,0.0,0.0,0.0,0.0,0.0,0.0,0.0,0.0,0.0,0.0167551608191,-0.010471975512,-0.0358665161285,0.000169,0.0,0.0,0.0,0.000169,0.0,0.0,0.0,0.000169,0.32373,0.02943,10.36917,0.006889,0.0,0.0,0.0,0.006889,0.0,0.0,0.0,0.006889
1421850805367177963,433648,1421850805367177963,fcu,-0.0154417408877,-0.00881561713121,-0.757427034932,0.652677657261,0.0,0.0,0.0,0.0,0.0,0.0,0.0,0.0,0.0,-0.0816814089933,-0.0251327412287,-0.0434586983747,0.000169,0.0,0.0,0.0,0.000169,0.0,0.0,0.0,0.000169,0.2943,0.02943,10.38879,0.006889,0.0,0.0,0.0,0.006889,0.0,0.0,0.0,0.006889
1421850805369177818,433649,1421850805369177818,fcu,-0.0154425101366,-0.00881426955154,-0.757483988918,0.652611556798,0.0,0.0,0.0,0.0,0.0,0.0,0.0,0.0,0.0,0.0180641577581,-0.00811578102177,-0.0827286065445,0.000169,0.0,0.0,0.0,0.000169,0.0,0.0,0.0,0.000169,0.2943,0.02943,10.38879,0.006889,0.0,0.0,0.0,0.006889,0.0,0.0,0.0,0.006889
1421850805371177912,433650,1421850805371177912,fcu,-0.0155086062589,-0.00887122847343,-0.757483026103,0.652610335195,0.0,0.0,0.0,0.0,0.0,0.0,0.0,0.0,0.0,0.0348193185773,-0.0788016157275,-0.06780604144,0.000169,0.0,0.0,0.0,0.000169,0.0,0.0,0.0,0.000169,0.35316,-0.02943,10.55556,0.006889,0.0,0.0,0.0,0.006889,0.0,0.0,0.0,0.006889
1421850805373179913,433651,1421850805373179913,fcu,-0.0156407981487,-0.00898514611409,-0.757481083166,0.652607877081,0.0,0.0,0.0,0.0,0.0,0.0,0.0,0.0,0.0,-0.0827286065445,-0.208392312688,-0.0345575191895,0.000169,0.0,0.0,0.0,0.000169,0.0,0.0,0.0,0.000169,0.35316,-0.02943,10.55556,0.006889,0.0,0.0,0.0,0.006889,0.0,0.0,0.0,0.006889
1421850805375180006,433652,1421850805375180006,fcu,-0.0157076829278,-0.00904073411251,-0.757537050834,0.652540535475,0.0,0.0,0.0,0.0,0.0,0.0,0.0,0.0,0.0,-0.0269653369433,-0.0209439510239,-0.0539306738866,0.000169,0.0,0.0,0.0,0.000169,0.0,0.0,0.0,0.000169,0.35316,-0.02943,10.55556,0.006889,0.0,0.0,0.0,0.006889,0.0,0.0,0.0,0.006889
1421850805377179861,433653,1421850805377179861,fcu,-0.0156985271435,-0.00891767346438,-0.757538812161,0.652540404431,0.0,0.0,0.0,0.0,0.0,0.0,0.0,0.0,0.0,-0.139015474921,0.0348193185773,0.0133517687778,0.000169,0.0,0.0,0.0,0.000169,0.0,0.0,0.0,0.000169,0.33354,0.04905,10.42803,0.006889,0.0,0.0,0.0,0.006889,0.0,0.0,0.0,0.006889
1421850805379179955,433654,1421850805379179955,fcu,-0.0158215724965,-0.00890851881805,-0.757538617201,0.652537784028,0.0,0.0,0.0,0.0,0.0,0.0,0.0,0.0,0.0,-0.0371755130675,-0.0808960108299,-0.0811578102177,0.000169,0.0,0.0,0.0,0.000169,0.0,0.0,0.0,0.000169,0.33354,0.04905,10.42803,0.006889,0.0,0.0,0.0,0.006889,0.0,0.0,0.0,0.006889
1421850805387181997,433658,1421850805387181997,fcu,-0.0161437089942,-0.00906881443893,-0.757592413984,0.652465226306,0.0,0.0,0.0,0.0,0.0,0.0,0.0,0.0,0.0,-0.0657116463376,0.0709476340936,0.0185877565337,0.000169,0.0,0.0,0.0,0.000169,0.0,0.0,0.0,0.000169,0.3924,0.00981,10.58499,0.006889,0.0,0.0,0.0,0.006889,0.0,0.0,0.0,0.006889
1421850805389181852,433659,1421850805389181852,fcu,-0.0161345424823,-0.00894575474443,-0.757594186039,0.652465094308,0.0,0.0,0.0,0.0,0.0,0.0,0.0,0.0,0.0,-0.0719948316448,0.0447676953137,-0.0175405589825,0.000169,0.0,0.0,0.0,0.000169,0.0,0.0,0.0,0.000169,0.3924,0.00981,10.58499,0.006889,0.0,0.0,0.0,0.006889,0.0,0.0,0.0,0.006889
1421850805391181946,433660,1421850805391181946,fcu,-0.0162767196933,-0.0091812881824,-0.757647354888,0.652396549634,0.0,0.0,0.0,0.0,0.0,0.0,0.0,0.0,0.0,0.0798488132787,-0.173834793499,-0.102625360017,0.000169,0.0,0.0,0.0,0.000169,0.0,0.0,0.0,0.000169,0.38259,0.00981,10.46727,0.006889,0.0,0.0,0.0,0.006889,0.0,0.0,0.0,0.006889
1421850805393182039,433661,1421850805393182039,fcu,-0.016465870606,-0.0092290534213,-0.757646145537,0.652392533549,0.0,0.0,0.0,0.0,0.0,0.0,0.0,0.0,0.0,-0.05471607205,-0.131161493287,-0.0298451302091,0.000169,0.0,0.0,0.0,0.000169,0.0,0.0,0.0,0.000169,0.38259,0.00981,10.46727,0.006889,0.0,0.0,0.0,0.006889,0.0,0.0,0.0,0.006889
1421850805396181822,433662,1421850805396181822,fcu,-0.0166641976177,-0.0093998766106,-0.757643090737,0.652388606504,0.0,0.0,0.0,0.0,0.0,0.0,0.0,0.0,0.0,-0.156556033904,-0.165457213089,-0.0274889357189,0.000169,0.0,0.0,0.0,0.000169,0.0,0.0,0.0,0.000169,0.38259,-0.03924,10.55556,0.006889,0.0,0.0,0.0,0.006889,0.0,0.0,0.0,0.006889
1421850805397183895,433663,1421850805397183895,fcu,-0.0167211292001,-0.00933375974245,-0.757643908146,0.652387149794,0.0,0.0,0.0,0.0,0.0,0.0,0.0,0.0,0.0,-0.124616508592,-0.01308996939,0.0523598775598,0.000169,0.0,0.0,0.0,0.000169,0.0,0.0,0.0,0.000169,0.38259,-0.03924,10.55556,0.006889,0.0,0.0,0.0,0.006889,0.0,0.0,0.0,0.006889
1421850805399183989,433664,1421850805399183989,fcu,-0.0167780606551,-0.00926764280322,-0.757644719786,0.652385688116,0.0,0.0,0.0,0.0,0.0,0.0,0.0,0.0,0.0,-0.0837758040957,-0.0950331777711,0.0811578102177,0.000169,0.0,0.0,0.0,0.000169,0.0,0.0,0.0,0.000169,0.38259,-0.03924,10.55556,0.006889,0.0,0.0,0.0,0.006889,0.0,0.0,0.0,0.006889
1421850805409185886,433669,1421850805409185886,fcu,-0.0172710221014,-0.00922943259162,-0.757700801575,0.652308228265,0.0,0.0,0.0,0.0,0.0,0.0,0.0,0.0,0.0,-0.151843644924,0.147654854719,0.0408407044967,0.000169,0.0,0.0,0.0,0.000169,0.0,0.0,0.0,0.000169,0.38259,-0.03924,10.42803,0.006889,0.0,0.0,0.0,0.006889,0.0,0.0,0.0,0.006889
1421850805411185980,433670,1421850805411185980,fcu,-0.0172710221014,-0.00922943259162,-0.757700801575,0.652308228265,0.0,0.0,0.0,0.0,0.0,0.0,0.0,0.0,0.0,0.0267035375555,0.0515744793964,-0.0225147473507,0.000169,0.0,0.0,0.0,0.000169,0.0,0.0,0.0,0.000169,0.42183,-0.00981,10.50651,0.006889,0.0,0.0,0.0,0.006889,0.0,0.0,0.0,0.006889
1421850805413185835,433671,1421850805413185835,fcu,-0.0172810261134,-0.00935098172127,-0.757755886868,0.652242241191,0.0,0.0,0.0,0.0,0.0,0.0,0.0,0.0,0.0,-0.0248709418409,-0.0714712328692,-0.111002940427,0.000169,0.0,0.0,0.0,0.000169,0.0,0.0,0.0,0.000169,0.42183,-0.00981,10.50651,0.006889,0.0,0.0,0.0,0.006889,0.0,0.0,0.0,0.006889
1421850805417186022,433673,1421850805417186022,fcu,-0.0176702001798,-0.00956641822725,-0.757865321626,0.652101527329,0.0,0.0,0.0,0.0,0.0,0.0,0.0,0.0,0.0,-0.0722566310326,-0.236928445958,-0.138230076758,0.000169,0.0,0.0,0.0,0.000169,0.0,0.0,0.0,0.000169,0.38259,-0.00981,10.43784,0.006889,0.0,0.0,0.0,0.006889,0.0,0.0,0.0,0.006889
1421850805419185877,433674,1421850805419185877,fcu,-0.0177178866072,-0.0093772277117,-0.757868022212,0.652099842818,0.0,0.0,0.0,0.0,0.0,0.0,0.0,0.0,0.0,-0.0356047167407,0.0939859802199,0.0913679863419,0.000169,0.0,0.0,0.0,0.000169,0.0,0.0,0.0,0.000169,0.37278,-0.05886,10.4967,0.006889,0.0,0.0,0.0,0.006889,0.0,0.0,0.0,0.006889
1421850805421187878,433675,1421850805421187878,fcu,-0.0176509465647,-0.00932185009243,-0.757812149459,0.652167381374,0.0,0.0,0.0,0.0,0.0,0.0,0.0,0.0,0.0,-0.106028752059,0.112311937366,0.0615228561328,0.000169,0.0,0.0,0.0,0.000169,0.0,0.0,0.0,0.000169,0.37278,-0.05886,10.4967,0.006889,0.0,0.0,0.0,0.006889,0.0,0.0,0.0,0.006889
1421850805435189962,433682,1421850805435189962,fcu,-0.0182785994761,-0.0093924869905,-0.758036768414,0.651887974826,0.0,0.0,0.0,0.0,0.0,0.0,0.0,0.0,0.0,-0.254207205553,-0.15943582717,-0.0976511716491,0.000169,0.0,0.0,0.0,0.000169,0.0,0.0,0.0,0.000169,0.38259,0.04905,10.41822,0.006889,0.0,0.0,0.0,0.006889,0.0,0.0,0.0,0.006889
1421850805437189817,433683,1421850805437189817,fcu,-0.0184677673728,-0.0094401371041,-0.758035485645,0.651883446547,0.0,0.0,0.0,0.0,0.0,0.0,0.0,0.0,0.0,-0.191375352481,-0.21650809371,-0.12252211349,0.000169,0.0,0.0,0.0,0.000169,0.0,0.0,0.0,0.000169,0.38259,0.04905,10.41822,0.006889,0.0,0.0,0.0,0.006889,0.0,0.0,0.0,0.006889
1421850805439189911,433684,1421850805439189911,fcu,-0.0186101434892,-0.00967536532424,-0.758088335893,0.651814486528,0.0,0.0,0.0,0.0,0.0,0.0,0.0,0.0,0.0,-0.0151843644924,-0.0316777259237,0.00706858347058,0.000169,0.0,0.0,0.0,0.000169,0.0,0.0,0.0,0.000169,0.32373,0.0,10.42803,0.006889,0.0,0.0,0.0,0.006889,0.0,0.0,0.0,0.006889
1421850805441190004,433685,1421850805441190004,fcu,-0.01848711714,-0.00968462651875,-0.758088568701,0.651817579169,0.0,0.0,0.0,0.0,0.0,0.0,0.0,0.0,0.0,0.0256563400043,0.0649262481742,0.0879645943005,0.000169,0.0,0.0,0.0,0.000169,0.0,0.0,0.0,0.000169,0.32373,0.0,10.42803,0.006889,0.0,0.0,0.0,0.006889,0.0,0.0,0.0,0.006889
1421850805443189859,433686,1421850805443189859,fcu,-0.018420132017,-0.00962933948544,-0.758032758129,0.651885198605,0.0,0.0,0.0,0.0,0.0,0.0,0.0,0.0,0.0,-0.0298451302091,0.0984365698125,0.0167551608191,0.000169,0.0,0.0,0.0,0.000169,0.0,0.0,0.0,0.000169,0.40221,0.00981,10.45746,0.006889,0.0,0.0,0.0,0.006889,0.0,0.0,0.0,0.006889
1421850805446192026,433687,1421850805446192026,fcu,-0.0185439988839,-0.00961847077423,-0.758089410958,0.651815963382,0.0,0.0,0.0,0.0,0.0,0.0,0.0,0.0,0.0,-0.0714712328692,-0.12723450247,-0.0866555973615,0.000169,0.0,0.0,0.0,0.000169,0.0,0.0,0.0,0.000169,0.40221,0.00981,10.45746,0.006889,0.0,0.0,0.0,0.006889,0.0,0.0,0.0,0.006889
1421850805447191954,433688,1421850805447191954,fcu,-0.0187247390115,-0.00954141979732,-0.75814689139,0.651745070202,0.0,0.0,0.0,0.0,0.0,0.0,0.0,0.0,0.0,-0.27829274923,-0.232216056978,-0.0735656279716,0.000169,0.0,0.0,0.0,0.000169,0.0,0.0,0.0,0.000169,0.33354,0.06867,10.37898,0.006889,0.0,0.0,0.0,0.006889,0.0,0.0,0.0,0.006889
1421850805449192047,433689,1421850805449192047,fcu,-0.0190470563739,-0.00970115233403,-0.758200294144,0.65167124476,0.0,0.0,0.0,0.0,0.0,0.0,0.0,0.0,0.0,0.0659734457254,-0.136397481043,-0.0814196096055,0.000169,0.0,0.0,0.0,0.000169,0.0,0.0,0.0,0.000169,0.33354,0.06867,10.37898,0.006889,0.0,0.0,0.0,0.006889,0.0,0.0,0.0,0.006889
1421850805451191902,433690,1421850805451191902,fcu,-0.018924033555,-0.00971043485627,-0.758200533162,0.651674412511,0.0,0.0,0.0,0.0,0.0,0.0,0.0,0.0,0.0,0.0659734457254,-0.136397481043,-0.0887499924639,0.000169,0.0,0.0,0.0,0.000169,0.0,0.0,0.0,0.000169,0.33354,0.06867,10.37898,0.006889,0.0,0.0,0.0,0.006889,0.0,0.0,0.0,0.006889
1421850805453191996,433691,1421850805453191996,fcu,-0.018924033555,-0.00971043485627,-0.758200533162,0.651674412511,0.0,0.0,0.0,0.0,0.0,0.0,0.0,0.0,0.0,0.109170344712,0.130114295736,0.0562868683768,0.000169,0.0,0.0,0.0,0.000169,0.0,0.0,0.0,0.000169,0.38259,-0.00981,10.55556,0.006889,0.0,0.0,0.0,0.006889,0.0,0.0,0.0,0.006889
1421850805455191851,433692,1421850805455191851,fcu,-0.0189147490889,-0.00958738627434,-0.758202455423,0.651674267469,0.0,0.0,0.0,0.0,0.0,0.0,0.0,0.0,0.0,-0.0225147473507,-0.0738274273594,-0.00863937979737,0.000169,0.0,0.0,0.0,0.000169,0.0,0.0,0.0,0.000169,0.38259,-0.00981,10.55556,0.006889,0.0,0.0,0.0,0.006889,0.0,0.0,0.0,0.006889
1421850805461194038,433695,1421850805461194038,fcu,-0.0194932779152,-0.00984983400805,-0.758310245776,0.651527868964,0.0,0.0,0.0,0.0,0.0,0.0,0.0,0.0,0.0,0.0879645943005,-0.210748507178,-0.05471607205,0.000169,0.0,0.0,0.0,0.000169,0.0,0.0,0.0,0.000169,0.33354,0.07848,10.36917,0.006889,0.0,0.0,0.0,0.006889,0.0,0.0,0.0,0.006889
1421850805463193893,433696,1421850805463193893,fcu,-0.0194364213087,-0.00991600902317,-0.758309383329,0.651529567593,0.0,0.0,0.0,0.0,0.0,0.0,0.0,0.0,0.0,0.140848070636,0.0829904059323,-0.0125663706144,0.000169,0.0,0.0,0.0,0.000169,0.0,0.0,0.0,0.000169,0.31392,0.0,10.47708,0.006889,0.0,0.0,0.0,0.006889,0.0,0.0,0.0,0.006889
1421850805469195843,433699,1421850805469195843,fcu,-0.0196740056575,-0.00977263829324,-0.758367707969,0.651456712723,0.0,0.0,0.0,0.0,0.0,0.0,0.0,0.0,0.0,-0.265726378616,-0.199752932891,-0.128543499409,0.000169,0.0,0.0,0.0,0.000169,0.0,0.0,0.0,0.000169,0.37278,0.0,10.46727,0.006889,0.0,0.0,0.0,0.006889,0.0,0.0,0.0,0.006889
1421850805471195936,433700,1421850805471195936,fcu,-0.0199200390799,-0.00975400939106,-0.758367207139,0.651450098227,0.0,0.0,0.0,0.0,0.0,0.0,0.0,0.0,0.0,-0.154199839414,-0.212581102893,-0.0408407044967,0.000169,0.0,0.0,0.0,0.000169,0.0,0.0,0.0,0.000169,0.28449,0.06867,10.37898,0.006889,0.0,0.0,0.0,0.006889,0.0,0.0,0.0,0.006889
1421850805487197876,433708,1421850805487197876,fcu,-0.0204426885087,-0.0100805359464,-0.758530745858,0.651238502294,0.0,0.0,0.0,0.0,0.0,0.0,0.0,0.0,0.0,0.0746128255228,-0.057334065928,-0.0371755130675,0.000169,0.0,0.0,0.0,0.000169,0.0,0.0,0.0,0.000169,0.34335,0.01962,10.48689,0.006889,0.0,0.0,0.0,0.006889,0.0,0.0,0.0,0.006889
1421850805489197969,433709,1421850805489197969,fcu,-0.0205656995463,-0.0100711895354,-0.758530485605,0.651235077028,0.0,0.0,0.0,0.0,0.0,0.0,0.0,0.0,0.0,-0.208915911464,-0.128281700022,-0.0442440965381,0.000169,0.0,0.0,0.0,0.000169,0.0,0.0,0.0,0.000169,0.40221,0.0,10.43784,0.006889,0.0,0.0,0.0,0.006889,0.0,0.0,0.0,0.006889
1421850805493199825,433711,1421850805493199825,fcu,-0.0208125969853,-0.010050680647,-0.758586787696,0.651161965381,0.0,0.0,0.0,0.0,0.0,0.0,0.0,0.0,0.0,-0.183521370847,-0.213104701669,-0.00602138591938,0.000169,0.0,0.0,0.0,0.000169,0.0,0.0,0.0,0.000169,0.32373,0.12753,10.29069,0.006889,0.0,0.0,0.0,0.006889,0.0,0.0,0.0,0.006889
1421850805495199919,433712,1421850805495199919,fcu,-0.0209356053965,-0.010041323639,-0.758586522245,0.65115847573,0.0,0.0,0.0,0.0,0.0,0.0,0.0,0.0,0.0,0.001308996939,0.0133517687778,-0.069115038379,0.000169,0.0,0.0,0.0,0.000169,0.0,0.0,0.0,0.000169,0.32373,0.12753,10.29069,0.006889,0.0,0.0,0.0,0.006889,0.0,0.0,0.0,0.006889
1421850805507201910,433718,1421850805507201910,fcu,-0.0215711441822,-0.0102368565531,-0.758694723918,0.651008608549,0.0,0.0,0.0,0.0,0.0,0.0,0.0,0.0,0.0,0.175143790438,-0.0557632696012,-0.0641408500108,0.000169,0.0,0.0,0.0,0.000169,0.0,0.0,0.0,0.000169,0.35316,0.07848,10.44765,0.006889,0.0,0.0,0.0,0.006889,0.0,0.0,0.0,0.006889
1421850805509202003,433719,1421850805509202003,fcu,-0.0215814290908,-0.0103580120694,-0.758749459793,0.650942555659,0.0,0.0,0.0,0.0,0.0,0.0,0.0,0.0,0.0,0.0793252145031,-0.0903207887907,-0.0251327412287,0.000169,0.0,0.0,0.0,0.000169,0.0,0.0,0.0,0.000169,0.35316,0.07848,10.44765,0.006889,0.0,0.0,0.0,0.006889,0.0,0.0,0.0,0.006889
1421850805511201859,433720,1421850805511201859,fcu,-0.0215814290908,-0.0103580120694,-0.758749459793,0.650942555659,0.0,0.0,0.0,0.0,0.0,0.0,0.0,0.0,0.0,-0.0285361332701,-0.0761836218496,-0.0719948316448,0.000169,0.0,0.0,0.0,0.000169,0.0,0.0,0.0,0.000169,0.41202,-0.01962,10.38879,0.006889,0.0,0.0,0.0,0.006889,0.0,0.0,0.0,0.006889
1421850805513201952,433721,1421850805513201952,fcu,-0.0218936293088,-0.0103960587026,-0.758747721949,0.65093354914,0.0,0.0,0.0,0.0,0.0,0.0,0.0,0.0,0.0,-0.256825199431,-0.311803070869,-0.0261799387799,0.000169,0.0,0.0,0.0,0.000169,0.0,0.0,0.0,0.000169,0.41202,-0.01962,10.38879,0.006889,0.0,0.0,0.0,0.006889,0.0,0.0,0.0,0.006889
1421850805515202045,433722,1421850805515202045,fcu,-0.0223194329283,-0.0103016792377,-0.758747778033,0.650920523296,0.0,0.0,0.0,0.0,0.0,0.0,0.0,0.0,0.0,-0.175929188601,-0.164410015538,0.0167551608191,0.000169,0.0,0.0,0.0,0.000169,0.0,0.0,0.0,0.000169,0.41202,-0.01962,10.38879,0.006889,0.0,0.0,0.0,0.006889,0.0,0.0,0.0,0.006889
1421850805517204046,433723,1421850805517204046,fcu,-0.0223856280174,-0.0103585037753,-0.758746590944,0.650918732093,0.0,0.0,0.0,0.0,0.0,0.0,0.0,0.0,0.0,0.0269653369433,-0.124354709205,-0.050789081233,0.000169,0.0,0.0,0.0,0.000169,0.0,0.0,0.0,0.000169,0.35316,0.10791,10.3986,0.006889,0.0,0.0,0.0,0.006889,0.0,0.0,0.0,0.006889
1421850805519203901,433724,1421850805519203901,fcu,-0.0223485388472,-0.010668840782,-0.75879823251,0.650854792552,0.0,0.0,0.0,0.0,0.0,0.0,0.0,0.0,0.0,0.100007366139,-0.111002940427,-0.0963421747101,0.000169,0.0,0.0,0.0,0.000169,0.0,0.0,0.0,0.000169,0.35316,0.10791,10.3986,0.006889,0.0,0.0,0.0,0.006889,0.0,0.0,0.0,0.006889
1421850805521203995,433725,1421850805521203995,fcu,-0.0222917409668,-0.0107350583788,-0.758797298589,0.650856740351,0.0,0.0,0.0,0.0,0.0,0.0,0.0,0.0,0.0,0.0458148928649,-0.00942477796077,-0.0342957198017,0.000169,0.0,0.0,0.0,0.000169,0.0,0.0,0.0,0.000169,0.42183,-0.07848,10.50651,0.006889,0.0,0.0,0.0,0.006889,0.0,0.0,0.0,0.006889
1421850805523203850,433726,1421850805523203850,fcu,-0.0223494697941,-0.0106668904634,-0.758855027416,0.650788572436,0.0,0.0,0.0,0.0,0.0,0.0,0.0,0.0,0.0,-0.135088484104,-0.0950331777711,-0.0733038285838,0.000169,0.0,0.0,0.0,0.000169,0.0,0.0,0.0,0.000169,0.42183,-0.07848,10.50651,0.006889,0.0,0.0,0.0,0.006889,0.0,0.0,0.0,0.006889
1421850805525203943,433727,1421850805525203943,fcu,-0.0226522538899,-0.0105818477297,-0.758855378738,0.650779082371,0.0,0.0,0.0,0.0,0.0,0.0,0.0,0.0,0.0,-0.21650809371,-0.119904119612,0.00837758040957,0.000169,0.0,0.0,0.0,0.000169,0.0,0.0,0.0,0.000169,0.38259,0.0981,10.32012,0.006889,0.0,0.0,0.0,0.006889,0.0,0.0,0.0,0.006889
1421850805527204037,433728,1421850805527204037,fcu,-0.0228320397516,-0.0105062151166,-0.75885600768,0.650773291564,0.0,0.0,0.0,0.0,0.0,0.0,0.0,0.0,0.0,-0.236928445958,-0.129852496348,-0.011780972451,0.000169,0.0,0.0,0.0,0.000169,0.0,0.0,0.0,0.000169,0.38259,0.0981,10.32012,0.006889,0.0,0.0,0.0,0.006889,0.0,0.0,0.0,0.006889
1421850805529206038,433729,1421850805529206038,fcu,-0.0228518040422,-0.0107502910859,-0.758908500332,0.650707395392,0.0,0.0,0.0,0.0,0.0,0.0,0.0,0.0,0.0,0.206559716974,-0.18561576595,-0.108646745937,0.000169,0.0,0.0,0.0,0.000169,0.0,0.0,0.0,0.000169,0.38259,0.06867,10.44765,0.006889,0.0,0.0,0.0,0.006889,0.0,0.0,0.0,0.006889
1421850805531205893,433730,1421850805531205893,fcu,-0.0228621765571,-0.0108713297004,-0.758963102608,0.650641332804,0.0,0.0,0.0,0.0,0.0,0.0,0.0,0.0,0.0,0.123307511653,-0.182474173296,-0.0709476340936,0.000169,0.0,0.0,0.0,0.000169,0.0,0.0,0.0,0.000169,0.38259,0.06867,10.44765,0.006889,0.0,0.0,0.0,0.006889,0.0,0.0,0.0,0.006889
1421850805533205986,433731,1421850805533205986,fcu,-0.0228621765571,-0.0108713297004,-0.758963102608,0.650641332804,0.0,0.0,0.0,0.0,0.0,0.0,0.0,0.0,0.0,0.0562868683768,0.0594284610304,-0.0337721210261,0.000169,0.0,0.0,0.0,0.000169,0.0,0.0,0.0,0.000169,0.43164,-0.06867,10.4967,0.006889,0.0,0.0,0.0,0.006889,0.0,0.0,0.0,0.006889
1421850805536206007,433732,1421850805536206007,fcu,-0.0230419477509,-0.0107956662958,-0.758963753677,0.65063549153,0.0,0.0,0.0,0.0,0.0,0.0,0.0,0.0,0.0,-0.224362075344,-0.0924151838931,0.0157079632679,0.000169,0.0,0.0,0.0,0.000169,0.0,0.0,0.0,0.000169,0.43164,-0.06867,10.4967,0.006889,0.0,0.0,0.0,0.006889,0.0,0.0,0.0,0.006889
1421850805537205935,433733,1421850805537205935,fcu,-0.0230987263208,-0.0107294341728,-0.758964692886,0.650633478263,0.0,0.0,0.0,0.0,0.0,0.0,0.0,0.0,0.0,-0.220958683302,-0.0932005820565,-0.0311541271481,0.000169,0.0,0.0,0.0,0.000169,0.0,0.0,0.0,0.000169,0.38259,0.14715,10.31031,0.006889,0.0,0.0,0.0,0.006889,0.0,0.0,0.0,0.006889
1421850805539206028,433734,1421850805539206028,fcu,-0.0234118595809,-0.010765329563,-0.759019634319,0.650557597165,0.0,0.0,0.0,0.0,0.0,0.0,0.0,0.0,0.0,0.0287979326579,-0.191637151869,-0.105505153283,0.000169,0.0,0.0,0.0,0.000169,0.0,0.0,0.0,0.000169,0.38259,0.14715,10.31031,0.006889,0.0,0.0,0.0,0.006889,0.0,0.0,0.0,0.006889
1421850805541208029,433735,1421850805541208029,fcu,-0.0234213047649,-0.0108883614001,-0.75901744383,0.650557765329,0.0,0.0,0.0,0.0,0.0,0.0,0.0,0.0,0.0,0.178023583703,-0.171740398396,-0.0536688744988,0.000169,0.0,0.0,0.0,0.000169,0.0,0.0,0.0,0.000169,0.40221,0.0,10.45746,0.006889,0.0,0.0,0.0,0.006889,0.0,0.0,0.0,0.006889
1421850805543207884,433736,1421850805543207884,fcu,-0.0233654886809,-0.0109525591441,-0.759073259914,0.650493567585,0.0,0.0,0.0,0.0,0.0,0.0,0.0,0.0,0.0,0.169122404518,-0.124354709205,-0.0243473430653,0.000169,0.0,0.0,0.0,0.000169,0.0,0.0,0.0,0.000169,0.40221,0.0,10.45746,0.006889,0.0,0.0,0.0,0.006889,0.0,0.0,0.0,0.006889
1421850805545207977,433737,1421850805545207977,fcu,-0.023374944557,-0.0110755895787,-0.759071037231,0.650493738417,0.0,0.0,0.0,0.0,0.0,0.0,0.0,0.0,0.0,-0.0966039740979,-0.0549778714378,0.0107337748998,0.000169,0.0,0.0,0.0,0.000169,0.0,0.0,0.0,0.000169,0.40221,0.0,10.45746,0.006889,0.0,0.0,0.0,0.006889,0.0,0.0,0.0,0.006889
1421850805547207832,433738,1421850805547207832,fcu,-0.0234307499194,-0.0110113928529,-0.759015231869,0.650557935142,0.0,0.0,0.0,0.0,0.0,0.0,0.0,0.0,0.0,-0.305258086174,-0.0997455667515,0.0340339204139,0.000169,0.0,0.0,0.0,0.000169,0.0,0.0,0.0,0.000169,0.42183,0.05886,10.35936,0.006889,0.0,0.0,0.0,0.006889,0.0,0.0,0.0,0.006889
1421850805549207926,433739,1421850805549207926,fcu,-0.0237344509032,-0.0109242014367,-0.759072351397,0.650481746867,0.0,0.0,0.0,0.0,0.0,0.0,0.0,0.0,0.0,-0.224100275956,-0.239546439836,-0.112311937366,0.000169,0.0,0.0,0.0,0.000169,0.0,0.0,0.0,0.000169,0.42183,0.05886,10.35936,0.006889,0.0,0.0,0.0,0.006889,0.0,0.0,0.0,0.006889
1421850805551208019,433740,1421850805551208019,fcu,-0.0239340815761,-0.0110924796681,-0.759125311345,0.650409777225,0.0,0.0,0.0,0.0,0.0,0.0,0.0,0.0,0.0,0.154199839414,-0.17723818554,-0.132732289614,0.000169,0.0,0.0,0.0,0.000169,0.0,0.0,0.0,0.000169,0.37278,0.0981,10.36917,0.006889,0.0,0.0,0.0,0.006889,0.0,0.0,0.0,0.006889
1421850805553210020,433741,1421850805553210020,fcu,-0.0238877735047,-0.0112796700735,-0.759178831107,0.650345789346,0.0,0.0,0.0,0.0,0.0,0.0,0.0,0.0,0.0,0.2188642882,-0.260228591472,-0.0863937979737,0.000169,0.0,0.0,0.0,0.000169,0.0,0.0,0.0,0.000169,0.37278,0.0981,10.36917,0.006889,0.0,0.0,0.0,0.006889,0.0,0.0,0.0,0.006889
1421850805555209875,433742,1421850805555209875,fcu,-0.0238877735047,-0.0112796700735,-0.759178831107,0.650345789346,0.0,0.0,0.0,0.0,0.0,0.0,0.0,0.0,0.0,-0.0162315620435,-0.0314159265359,-0.0353429173529,0.000169,0.0,0.0,0.0,0.000169,0.0,0.0,0.0,0.000169,0.37278,0.0981,10.36917,0.006889,0.0,0.0,0.0,0.006889,0.0,0.0,0.0,0.006889
1421850805557209969,433743,1421850805557209969,fcu,-0.0239435481435,-0.011215508691,-0.759123056468,0.650409950728,0.0,0.0,0.0,0.0,0.0,0.0,0.0,0.0,0.0,-0.273318560862,0.0411025038845,0.103934356956,0.000169,0.0,0.0,0.0,0.000169,0.0,0.0,0.0,0.000169,0.42183,0.03924,10.34955,0.006889,0.0,0.0,0.0,0.006889,0.0,0.0,0.0,0.006889
1421850805559209824,433744,1421850805559209824,fcu,-0.0243039973561,-0.0110619696043,-0.759181134512,0.650331418234,0.0,0.0,0.0,0.0,0.0,0.0,0.0,0.0,0.0,-0.315730061686,-0.294262511886,0.0811578102177,0.000169,0.0,0.0,0.0,0.000169,0.0,0.0,0.0,0.000169,0.42183,0.03924,10.34955,0.006889,0.0,0.0,0.0,0.006889,0.0,0.0,0.0,0.006889
1421850805561209917,433745,1421850805561209917,fcu,-0.0244364558676,-0.0111755241166,-0.759178565376,0.650327512227,0.0,0.0,0.0,0.0,0.0,0.0,0.0,0.0,0.0,-0.174096592886,-0.329867228627,-0.168337006355,0.000169,0.0,0.0,0.0,0.000169,0.0,0.0,0.0,0.000169,0.42183,0.03924,10.34955,0.006889,0.0,0.0,0.0,0.006889,0.0,0.0,0.0,0.006889
1421850805563210011,433746,1421850805563210011,fcu,-0.024580382291,-0.011407815778,-0.759287166652,0.650191252712,0.0,0.0,0.0,0.0,0.0,0.0,0.0,0.0,0.0,0.163101018599,-0.242164433714,-0.112835536141,0.000169,0.0,0.0,0.0,0.000169,0.0,0.0,0.0,0.000169,0.36297,0.03924,10.34955,0.006889,0.0,0.0,0.0,0.006889,0.0,0.0,0.0,0.006889
1421850805565212011,433747,1421850805565212011,fcu,-0.0245236423069,-0.0114740760396,-0.759286168241,0.650193395279,0.0,0.0,0.0,0.0,0.0,0.0,0.0,0.0,0.0,0.0256563400043,0.160483024721,-0.0403171057211,0.000169,0.0,0.0,0.0,0.000169,0.0,0.0,0.0,0.000169,0.36297,0.03924,10.34955,0.006889,0.0,0.0,0.0,0.006889,0.0,0.0,0.0,0.006889
1421850805567211866,433748,1421850805567211866,fcu,-0.0244574034524,-0.011417310871,-0.759287483296,0.650195353827,0.0,0.0,0.0,0.0,0.0,0.0,0.0,0.0,0.0,-0.0149225651046,0.162053821048,0.0267035375555,0.000169,0.0,0.0,0.0,0.000169,0.0,0.0,0.0,0.000169,0.41202,0.0,10.31031,0.006889,0.0,0.0,0.0,0.006889,0.0,0.0,0.0,0.006889
1421850805569211960,433749,1421850805569211960,fcu,-0.0245604106898,-0.01116390723,-0.759234997981,0.650257157779,0.0,0.0,0.0,0.0,0.0,0.0,0.0,0.0,0.0,-0.371493331287,0.0335103216383,0.139277274309,0.000169,0.0,0.0,0.0,0.000169,0.0,0.0,0.0,0.000169,0.41202,0.0,10.31031,0.006889,0.0,0.0,0.0,0.006889,0.0,0.0,0.0,0.006889
1421850805571212053,433750,1421850805571212053,fcu,-0.0248063678665,-0.0111449386743,-0.759234360443,0.650248891101,0.0,0.0,0.0,0.0,0.0,0.0,0.0,0.0,0.0,-0.161006623496,-0.267820773719,-0.0709476340936,0.000169,0.0,0.0,0.0,0.000169,0.0,0.0,0.0,0.000169,0.41202,0.0,10.31031,0.006889,0.0,0.0,0.0,0.006889,0.0,0.0,0.0,0.006889
1421850805573211908,433751,1421850805573211908,fcu,-0.0249965544665,-0.0111900446223,-0.759289483961,0.650176464287,0.0,0.0,0.0,0.0,0.0,0.0,0.0,0.0,0.0,-0.0793252145031,-0.355523568631,-0.141895268187,0.000169,0.0,0.0,0.0,0.000169,0.0,0.0,0.0,0.000169,0.34335,0.14715,10.21221,0.006889,0.0,0.0,0.0,0.006889,0.0,0.0,0.0,0.006889
1421850805575212002,433752,1421850805575212002,fcu,-0.0252247850891,-0.0117272147218,-0.759335271646,0.650104705325,0.0,0.0,0.0,0.0,0.0,0.0,0.0,0.0,0.0,0.197396738401,-0.152367243699,-0.0657116463376,0.000169,0.0,0.0,0.0,0.000169,0.0,0.0,0.0,0.000169,0.34335,0.14715,10.21221,0.006889,0.0,0.0,0.0,0.006889,0.0,0.0,0.0,0.006889
1421850805577214003,433753,1421850805577214003,fcu,-0.0251595616584,-0.0116682601489,-0.759393347896,0.650040453613,0.0,0.0,0.0,0.0,0.0,0.0,0.0,0.0,0.0,0.0248709418409,0.0869173967493,-0.0633554518474,0.000169,0.0,0.0,0.0,0.000169,0.0,0.0,0.0,0.000169,0.3924,-0.04905,10.36917,0.006889,0.0,0.0,0.0,0.006889,0.0,0.0,0.0,0.006889
1421850805579213858,433754,1421850805579213858,fcu,-0.0250933147396,-0.0116115068094,-0.759394688916,0.650042463929,0.0,0.0,0.0,0.0,0.0,0.0,0.0,0.0,0.0,0.0175405589825,0.237713844122,0.00890117918517,0.000169,0.0,0.0,0.0,0.000169,0.0,0.0,0.0,0.000169,0.3924,-0.04905,10.36917,0.006889,0.0,0.0,0.0,0.006889,0.0,0.0,0.0,0.006889
1421850805581213951,433755,1421850805581213951,fcu,-0.0251395245388,-0.0114244074777,-0.759341299682,0.65010635885,0.0,0.0,0.0,0.0,0.0,0.0,0.0,0.0,0.0,-0.235357649631,0.061261056745,0.0759218224618,0.000169,0.0,0.0,0.0,0.000169,0.0,0.0,0.0,0.000169,0.3924,-0.04905,10.36917,0.006889,0.0,0.0,0.0,0.006889,0.0,0.0,0.0,0.006889
1421850805583214045,433756,1421850805583214045,fcu,-0.0253202208317,-0.0113464273545,-0.759398695832,0.650033665107,0.0,0.0,0.0,0.0,0.0,0.0,0.0,0.0,0.0,-0.153152641863,-0.217817090649,-0.129590696961,0.000169,0.0,0.0,0.0,0.000169,0.0,0.0,0.0,0.000169,0.3924,-0.04905,10.36917,0.006889,0.0,0.0,0.0,0.006889,0.0,0.0,0.0,0.006889
1421850805585213900,433757,1421850805585213900,fcu,-0.0258522442686,-0.0117959434432,-0.759501402074,0.649884710877,0.0,0.0,0.0,0.0,0.0,0.0,0.0,0.0,0.0,-0.0424115008235,-0.316253660461,-0.0788016157275,0.000169,0.0,0.0,0.0,0.000169,0.0,0.0,0.0,0.000169,0.33354,0.10791,10.2024,0.006889,0.0,0.0,0.0,0.006889,0.0,0.0,0.0,0.006889
1421850805587213993,433758,1421850805587213993,fcu,-0.0258050725131,-0.0119852425592,-0.759497953987,0.649887151807,0.0,0.0,0.0,0.0,0.0,0.0,0.0,0.0,0.0,0.30813787944,-0.2295980631,-0.0701622359302,0.000169,0.0,0.0,0.0,0.000169,0.0,0.0,0.0,0.000169,0.33354,0.10791,10.2024,0.006889,0.0,0.0,0.0,0.006889,0.0,0.0,0.0,0.006889
1421850805589215994,433759,1421850805589215994,fcu,-0.0257473072705,-0.0120537681356,-0.759440188744,0.649955677383,0.0,0.0,0.0,0.0,0.0,0.0,0.0,0.0,0.0,-0.00471238898038,0.0790634151153,0.185353966562,0.000169,0.0,0.0,0.0,0.000169,0.0,0.0,0.0,0.000169,0.3924,-0.06867,10.32993,0.006889,0.0,0.0,0.0,0.006889,0.0,0.0,0.0,0.006889
1421850805591215849,433760,1421850805591215849,fcu,-0.02568001009,-0.0119992622288,-0.759384848852,0.650024004266,0.0,0.0,0.0,0.0,0.0,0.0,0.0,0.0,0.0,-0.0767072206252,0.0997455667515,0.121213116551,0.000169,0.0,0.0,0.0,0.000169,0.0,0.0,0.0,0.000169,0.3924,-0.06867,10.32993,0.006889,0.0,0.0,0.0,0.006889,0.0,0.0,0.0,0.006889
1421850805593215942,433761,1421850805593215942,fcu,-0.0262296480087,-0.011892640829,-0.759441267945,0.649938097977,0.0,0.0,0.0,0.0,0.0,0.0,0.0,0.0,0.0,-0.269391570045,-0.252898208614,-0.144251462677,0.000169,0.0,0.0,0.0,0.000169,0.0,0.0,0.0,0.000169,0.43164,0.10791,10.24164,0.006889,0.0,0.0,0.0,0.006889,0.0,0.0,0.0,0.006889
1421850805595216036,433762,1421850805595216036,fcu,-0.0264872032907,-0.0119919859961,-0.759551580255,0.649796904629,0.0,0.0,0.0,0.0,0.0,0.0,0.0,0.0,0.0,-0.175143790438,-0.303163691071,-0.133779487165,0.000169,0.0,0.0,0.0,0.000169,0.0,0.0,0.0,0.000169,0.43164,0.10791,10.24164,0.006889,0.0,0.0,0.0,0.006889,0.0,0.0,0.0,0.006889
1421850805597215891,433763,1421850805597215891,fcu,-0.0266197182117,-0.0121054568613,-0.759548787162,0.649792650341,0.0,0.0,0.0,0.0,0.0,0.0,0.0,0.0,0.0,-0.0583812634792,-0.323060444544,-0.102101761242,0.000169,0.0,0.0,0.0,0.000169,0.0,0.0,0.0,0.000169,0.32373,0.07848,10.15335,0.006889,0.0,0.0,0.0,0.006889,0.0,0.0,0.0,0.006889
1421850805599215984,433764,1421850805599215984,fcu,-0.0265545122005,-0.0120464042021,-0.759606889001,0.649728494227,0.0,0.0,0.0,0.0,0.0,0.0,0.0,0.0,0.0,-0.00549778714378,0.245567825756,0.0466002910282,0.000169,0.0,0.0,0.0,0.000169,0.0,0.0,0.0,0.000169,0.32373,0.07848,10.15335,0.006889,0.0,0.0,0.0,0.006889,0.0,0.0,0.0,0.006889
1421850805601217985,433765,1421850805601217985,fcu,-0.0264872032907,-0.0119919859961,-0.759551580255,0.649796904629,0.0,0.0,0.0,0.0,0.0,0.0,0.0,0.0,0.0,-0.0706858347058,0.110741141039,0.166242611252,0.000169,0.0,0.0,0.0,0.000169,0.0,0.0,0.0,0.000169,0.43164,-0.03924,10.28088,0.006889,0.0,0.0,0.0,0.006889,0.0,0.0,0.0,0.006889
1421850805603217840,433766,1421850805603217840,fcu,-0.0264766152253,-0.011871277446,-0.759497298427,0.649862997331,0.0,0.0,0.0,0.0,0.0,0.0,0.0,0.0,0.0,-0.22724186861,0.118333323285,0.172002197784,0.000169,0.0,0.0,0.0,0.000169,0.0,0.0,0.0,0.000169,0.43164,-0.03924,10.28088,0.006889,0.0,0.0,0.0,0.006889,0.0,0.0,0.0,0.006889
1421850805605217934,433767,1421850805605217934,fcu,-0.026912793417,-0.0118970593675,-0.759551581071,0.649781161024,0.0,0.0,0.0,0.0,0.0,0.0,0.0,0.0,0.0,-0.147131255943,-0.349240383324,-0.129067098185,0.000169,0.0,0.0,0.0,0.000169,0.0,0.0,0.0,0.000169,0.43164,-0.03924,10.28088,0.006889,0.0,0.0,0.0,0.006889,0.0,0.0,0.0,0.006889
1421850805607218027,433768,1421850805607218027,fcu,-0.0270463536303,-0.0120081704646,-0.759605493715,0.649710545178,0.0,0.0,0.0,0.0,0.0,0.0,0.0,0.0,0.0,-0.0617846555206,-0.318348055564,-0.0958185759345,0.000169,0.0,0.0,0.0,0.000169,0.0,0.0,0.0,0.000169,0.35316,0.13734,10.07487,0.006889,0.0,0.0,0.0,0.006889,0.0,0.0,0.0,0.006889
1421850805609217882,433769,1421850805609217882,fcu,-0.0270194298956,-0.0124411516401,-0.759653665457,0.649647194031,0.0,0.0,0.0,0.0,0.0,0.0,0.0,0.0,0.0,0.165195413701,-0.0235619449019,-0.0719948316448,0.000169,0.0,0.0,0.0,0.000169,0.0,0.0,0.0,0.000169,0.35316,0.13734,10.07487,0.006889,0.0,0.0,0.0,0.006889,0.0,0.0,0.0,0.006889
1421850805611217976,433770,1421850805611217976,fcu,-0.026953163859,-0.0123844283777,-0.759655099978,0.64964935309,0.0,0.0,0.0,0.0,0.0,0.0,0.0,0.0,0.0,0.0162315620435,0.188233759828,0.00654498469498,0.000169,0.0,0.0,0.0,0.000169,0.0,0.0,0.0,0.000169,0.45126,-0.04905,10.32993,0.006889,0.0,0.0,0.0,0.006889,0.0,0.0,0.0,0.006889
1421850805613219976,433771,1421850805613219976,fcu,-0.0268751935154,-0.0122093796536,-0.759545622503,0.649783888965,0.0,0.0,0.0,0.0,0.0,0.0,0.0,0.0,0.0,-0.12252211349,0.153938040026,0.188757358603,0.000169,0.0,0.0,0.0,0.000169,0.0,0.0,0.0,0.000169,0.45126,-0.04905,10.32993,0.006889,0.0,0.0,0.0,0.006889,0.0,0.0,0.0,0.006889
1421850805615219831,433772,1421850805615219831,fcu,-0.0270453056168,-0.0120105306585,-0.759548792882,0.649776830788,0.0,0.0,0.0,0.0,0.0,0.0,0.0,0.0,0.0,-0.0583812634792,-0.181688775133,-0.0670206432766,0.000169,0.0,0.0,0.0,0.000169,0.0,0.0,0.0,0.000169,0.43164,0.11772,10.12392,0.006889,0.0,0.0,0.0,0.006889,0.0,0.0,0.0,0.006889
1421850805617219925,433773,1421850805617219925,fcu,-0.0272451352365,-0.0121783593677,-0.759601267478,0.649704013082,0.0,0.0,0.0,0.0,0.0,0.0,0.0,0.0,0.0,-0.0253945406165,-0.278816348006,-0.153152641863,0.000169,0.0,0.0,0.0,0.000169,0.0,0.0,0.0,0.000169,0.43164,0.11772,10.12392,0.006889,0.0,0.0,0.0,0.006889,0.0,0.0,0.0,0.006889
1421850805619220018,433774,1421850805619220018,fcu,-0.0273326989143,-0.012476351666,-0.759708205241,0.649569632225,0.0,0.0,0.0,0.0,0.0,0.0,0.0,0.0,0.0,0.270438767597,-0.258657795146,-0.104457955732,0.000169,0.0,0.0,0.0,0.000169,0.0,0.0,0.0,0.000169,0.33354,-0.00981,10.13373,0.006889,0.0,0.0,0.0,0.006889,0.0,0.0,0.0,0.006889
1421850805621219873,433775,1421850805621219873,fcu,-0.0272855973708,-0.0126656626685,-0.759704558284,0.649572214067,0.0,0.0,0.0,0.0,0.0,0.0,0.0,0.0,0.0,0.24504422698,-0.135088484104,-0.0971275728735,0.000169,0.0,0.0,0.0,0.000169,0.0,0.0,0.0,0.000169,0.33354,-0.00981,10.13373,0.006889,0.0,0.0,0.0,0.006889,0.0,0.0,0.0,0.006889
1421850805631222010,433780,1421850805631222010,fcu,-0.0277892237676,-0.0127455080634,-0.759813903303,0.649421391251,0.0,0.0,0.0,0.0,0.0,0.0,0.0,0.0,0.0,0.148178453494,-0.29740410454,-0.0733038285838,0.000169,0.0,0.0,0.0,0.000169,0.0,0.0,0.0,0.000169,0.31392,-0.01962,10.11411,0.006889,0.0,0.0,0.0,0.006889,0.0,0.0,0.0,0.006889
1421850805633221865,433781,1421850805633221865,fcu,-0.0277410276586,-0.0129372463981,-0.759753503389,0.649490321043,0.0,0.0,0.0,0.0,0.0,0.0,0.0,0.0,0.0,0.158912228394,-0.0680678408278,0.0442440965381,0.000169,0.0,0.0,0.0,0.000169,0.0,0.0,0.0,0.000169,0.31392,-0.01962,10.11411,0.006889,0.0,0.0,0.0,0.006889,0.0,0.0,0.0,0.006889
1421850805639224052,433784,1421850805639224052,fcu,-0.0280447298181,-0.0128493178421,-0.759810575839,0.649412255045,0.0,0.0,0.0,0.0,0.0,0.0,0.0,0.0,0.0,-0.103148958793,-0.219649686363,-0.165457213089,0.000169,0.0,0.0,0.0,0.000169,0.0,0.0,0.0,0.000169,0.45126,-0.02943,10.3005,0.006889,0.0,0.0,0.0,0.006889,0.0,0.0,0.0,0.006889
1421850805641223907,433785,1421850805641223907,fcu,-0.0281687991845,-0.0128372589704,-0.759866877301,0.64934124489,0.0,0.0,0.0,0.0,0.0,0.0,0.0,0.0,0.0,-0.12487830798,-0.259704992697,-0.157865030843,0.000169,0.0,0.0,0.0,0.000169,0.0,0.0,0.0,0.000169,0.34335,0.10791,10.03563,0.006889,0.0,0.0,0.0,0.006889,0.0,0.0,0.0,0.006889
1421850805643224001,433786,1421850805643224001,fcu,-0.0282446973972,-0.0130169682949,-0.759862755365,0.649339193808,0.0,0.0,0.0,0.0,0.0,0.0,0.0,0.0,0.0,0.201323729218,-0.140062672473,-0.061261056745,0.000169,0.0,0.0,0.0,0.000169,0.0,0.0,0.0,0.000169,0.34335,0.10791,10.03563,0.006889,0.0,0.0,0.0,0.006889,0.0,0.0,0.0,0.006889
1421850805645223856,433787,1421850805645223856,fcu,-0.0280650835965,-0.0130928902383,-0.759861984082,0.649346357852,0.0,0.0,0.0,0.0,0.0,0.0,0.0,0.0,0.0,0.105243353895,0.0649262481742,0.0945095789955,0.000169,0.0,0.0,0.0,0.000169,0.0,0.0,0.0,0.000169,0.36297,-0.07848,10.24164,0.006889,0.0,0.0,0.0,0.006889,0.0,0.0,0.0,0.006889
1421850805647223949,433788,1421850805647223949,fcu,-0.0280532032306,-0.0129747769683,-0.759751281347,0.649478762888,0.0,0.0,0.0,0.0,0.0,0.0,0.0,0.0,0.0,-0.124354709205,0.194778744523,0.10471975512,0.000169,0.0,0.0,0.0,0.000169,0.0,0.0,0.0,0.000169,0.36297,-0.07848,10.24164,0.006889,0.0,0.0,0.0,0.006889,0.0,0.0,0.0,0.006889
1421850805649225950,433789,1421850805649225950,fcu,-0.0281014016215,-0.012783011812,-0.759811694261,0.649409805208,0.0,0.0,0.0,0.0,0.0,0.0,0.0,0.0,0.0,-0.115453530019,-0.118333323285,-0.0890117918517,0.000169,0.0,0.0,0.0,0.000169,0.0,0.0,0.0,0.000169,0.41202,0.08829,10.23183,0.006889,0.0,0.0,0.0,0.006889,0.0,0.0,0.0,0.006889
1421850805651226044,433790,1421850805651226044,fcu,-0.0283580280353,-0.0128843470279,-0.759865015681,0.649334254288,0.0,0.0,0.0,0.0,0.0,0.0,0.0,0.0,0.0,-0.116238928183,-0.219649686363,-0.144513262065,0.000169,0.0,0.0,0.0,0.000169,0.0,0.0,0.0,0.000169,0.41202,0.08829,10.23183,0.006889,0.0,0.0,0.0,0.006889,0.0,0.0,0.0,0.006889
1421850805653225899,433791,1421850805653225899,fcu,-0.0283687793187,-0.0130048813396,-0.759919047521,0.649268146944,0.0,0.0,0.0,0.0,0.0,0.0,0.0,0.0,0.0,0.0769690200129,-0.278554548618,-0.151320046148,0.000169,0.0,0.0,0.0,0.000169,0.0,0.0,0.0,0.000169,0.27468,0.03924,10.06506,0.006889,0.0,0.0,0.0,0.006889,0.0,0.0,0.0,0.006889
1421850805655225992,433792,1421850805655225992,fcu,-0.0283228981459,-0.013191733521,-0.75997190384,0.649204510907,0.0,0.0,0.0,0.0,0.0,0.0,0.0,0.0,0.0,0.208654112076,-0.0225147473507,0.0227765467385,0.000169,0.0,0.0,0.0,0.000169,0.0,0.0,0.0,0.000169,0.27468,0.03924,10.06506,0.006889,0.0,0.0,0.0,0.006889,0.0,0.0,0.0,0.006889
1421850805657225847,433793,1421850805657225847,fcu,-0.0280650835965,-0.0130928902383,-0.759861984082,0.649346357852,0.0,0.0,0.0,0.0,0.0,0.0,0.0,0.0,0.0,0.0630936524596,0.236928445958,0.128019900634,0.000169,0.0,0.0,0.0,0.000169,0.0,0.0,0.0,0.000169,0.27468,0.03924,10.06506,0.006889,0.0,0.0,0.0,0.006889,0.0,0.0,0.0,0.006889
1421850805660225868,433794,1421850805660225868,fcu,-0.0279229020484,-0.0128564819512,-0.759867610734,0.649350626835,0.0,0.0,0.0,0.0,0.0,0.0,0.0,0.0,0.0,-0.134564885329,0.0958185759345,-0.00811578102177,0.000169,0.0,0.0,0.0,0.000169,0.0,0.0,0.0,0.000169,0.44145,0.04905,10.37898,0.006889,0.0,0.0,0.0,0.006889,0.0,0.0,0.0,0.006889
1421850805661227942,433795,1421850805661227942,fcu,-0.0280458510258,-0.0128468704288,-0.759867244856,0.649345946592,0.0,0.0,0.0,0.0,0.0,0.0,0.0,0.0,0.0,-0.117024326346,-0.0814196096055,-0.0460766922527,0.000169,0.0,0.0,0.0,0.000169,0.0,0.0,0.0,0.000169,0.44145,0.04905,10.37898,0.006889,0.0,0.0,0.0,0.006889,0.0,0.0,0.0,0.006889
1421850805663228035,433796,1421850805663228035,fcu,-0.0283024928743,-0.0129481879015,-0.759920550842,0.649270413415,0.0,0.0,0.0,0.0,0.0,0.0,0.0,0.0,0.0,-0.0918915851175,-0.301331095357,-0.153938040026,0.000169,0.0,0.0,0.0,0.000169,0.0,0.0,0.0,0.000169,0.30411,0.17658,10.0062,0.006889,0.0,0.0,0.0,0.006889,0.0,0.0,0.0,0.006889
1421850805665227890,433797,1421850805665227890,fcu,-0.0283891895011,-0.0132484207104,-0.759970378852,0.649202246249,0.0,0.0,0.0,0.0,0.0,0.0,0.0,0.0,0.0,0.169384203906,-0.0738274273594,-0.0345575191895,0.000169,0.0,0.0,0.0,0.000169,0.0,0.0,0.0,0.000169,0.30411,0.17658,10.0062,0.006889,0.0,0.0,0.0,0.006889,0.0,0.0,0.0,0.006889
1421850805667227983,433798,1421850805667227983,fcu,-0.0283325358095,-0.0133147405865,-0.759969219816,0.649204721201,0.0,0.0,0.0,0.0,0.0,0.0,0.0,0.0,0.0,0.213104701669,0.0790634151153,0.0227765467385,0.000169,0.0,0.0,0.0,0.000169,0.0,0.0,0.0,0.000169,0.32373,0.00981,10.24164,0.006889,0.0,0.0,0.0,0.006889,0.0,0.0,0.0,0.006889
1421850805669227839,433799,1421850805669227839,fcu,-0.0279432779217,-0.0131000632995,-0.759919013634,0.649284725123,0.0,0.0,0.0,0.0,0.0,0.0,0.0,0.0,0.0,-0.0869173967493,0.289811922294,0.0578576647036,0.000169,0.0,0.0,0.0,0.000169,0.0,0.0,0.0,0.000169,0.32373,0.00981,10.24164,0.006889,0.0,0.0,0.0,0.006889,0.0,0.0,0.0,0.006889
1421850805671227932,433800,1421850805671227932,fcu,-0.0279336509197,-0.012977054464,-0.759921654738,0.649284518424,0.0,0.0,0.0,0.0,0.0,0.0,0.0,0.0,0.0,-0.142680666351,0.155508836353,0.00340339204139,0.000169,0.0,0.0,0.0,0.000169,0.0,0.0,0.0,0.000169,0.40221,0.15696,10.2024,0.006889,0.0,0.0,0.0,0.006889,0.0,0.0,0.0,0.006889
1421850805673229933,433801,1421850805673229933,fcu,-0.0281806770523,-0.0129553508461,-0.759977577537,0.64920881846,0.0,0.0,0.0,0.0,0.0,0.0,0.0,0.0,0.0,-0.191375352481,-0.208392312688,-0.0609992573572,0.000169,0.0,0.0,0.0,0.000169,0.0,0.0,0.0,0.000169,0.40221,0.15696,10.2024,0.006889,0.0,0.0,0.0,0.006889,0.0,0.0,0.0,0.006889
1421850805675230026,433802,1421850805675230026,fcu,-0.0283795518191,-0.0131254134111,-0.759973052142,0.649202036796,0.0,0.0,0.0,0.0,0.0,0.0,0.0,0.0,0.0,0.0327249234749,-0.173049395335,-0.0146607657168,0.000169,0.0,0.0,0.0,0.000169,0.0,0.0,0.0,0.000169,0.28449,0.14715,9.98658,0.006889,0.0,0.0,0.0,0.006889,0.0,0.0,0.0,0.006889
1421850805677229881,433803,1421850805677229881,fcu,-0.0284458429765,-0.0131821007334,-0.759971532101,0.649199766353,0.0,0.0,0.0,0.0,0.0,0.0,0.0,0.0,0.0,0.0447676953137,-0.0976511716491,0.0369137136797,0.000169,0.0,0.0,0.0,0.000169,0.0,0.0,0.0,0.000169,0.28449,0.14715,9.98658,0.006889,0.0,0.0,0.0,0.006889,0.0,0.0,0.0,0.006889
1421850805679229975,433804,1421850805679229975,fcu,-0.0281432981884,-0.0132676864149,-0.759971118966,0.649211692441,0.0,0.0,0.0,0.0,0.0,0.0,0.0,0.0,0.0,0.109170344712,0.158650429006,-0.00471238898038,0.000169,0.0,0.0,0.0,0.000169,0.0,0.0,0.0,0.000169,0.3924,0.02943,10.29069,0.006889,0.0,0.0,0.0,0.006889,0.0,0.0,0.0,0.006889
1421850805681229830,433805,1421850805681229830,fcu,-0.0280770060097,-0.0132109992899,-0.759972642272,0.64921393564,0.0,0.0,0.0,0.0,0.0,0.0,0.0,0.0,0.0,-0.0565486677646,0.203941723096,-0.0193731546971,0.000169,0.0,0.0,0.0,0.000169,0.0,0.0,0.0,0.000169,0.3924,0.02943,10.29069,0.006889,0.0,0.0,0.0,0.006889,0.0,0.0,0.0,0.006889
1421850805683229923,433806,1421850805683229923,fcu,-0.0280673683095,-0.0130879917578,-0.759975304827,0.649213727028,0.0,0.0,0.0,0.0,0.0,0.0,0.0,0.0,0.0,-0.12252211349,-0.00706858347058,-0.0387463093943,0.000169,0.0,0.0,0.0,0.000169,0.0,0.0,0.0,0.000169,0.40221,0.1962,10.11411,0.006889,0.0,0.0,0.0,0.006889,0.0,0.0,0.0,0.006889
1421850805685231924,433807,1421850805685231924,fcu,-0.0283252001063,-0.0131867900418,-0.760085199826,0.6490718609,0.0,0.0,0.0,0.0,0.0,0.0,0.0,0.0,0.0,0.0290597320457,-0.14634585778,-0.104196156344,0.000169,0.0,0.0,0.0,0.000169,0.0,0.0,0.0,0.000169,0.40221,0.1962,10.11411,0.006889,0.0,0.0,0.0,0.006889,0.0,0.0,0.0,0.006889
1421850805687232018,433808,1421850805687232018,fcu,-0.0283252001063,-0.0131867900418,-0.760085199826,0.6490718609,0.0,0.0,0.0,0.0,0.0,0.0,0.0,0.0,0.0,0.0706858347058,-0.0722566310326,-0.0261799387799,0.000169,0.0,0.0,0.0,0.000169,0.0,0.0,0.0,0.000169,0.33354,0.14715,9.98658,0.006889,0.0,0.0,0.0,0.006889,0.0,0.0,0.0,0.006889
1421850805689231873,433809,1421850805689231873,fcu,-0.0281456134078,-0.0132627742807,-0.760084416206,0.649079042571,0.0,0.0,0.0,0.0,0.0,0.0,0.0,0.0,0.0,0.0722566310326,0.0450294947015,-0.00759218224618,0.000169,0.0,0.0,0.0,0.000169,0.0,0.0,0.0,0.000169,0.33354,0.14715,9.98658,0.006889,0.0,0.0,0.0,0.006889,0.0,0.0,0.0,0.006889
1421850805691231966,433810,1421850805691231966,fcu,-0.0280889704688,-0.0133291041084,-0.760083255917,0.649081496267,0.0,0.0,0.0,0.0,0.0,0.0,0.0,0.0,0.0,0.244782427592,0.150796447372,-0.0609992573572,0.000169,0.0,0.0,0.0,0.000169,0.0,0.0,0.0,0.000169,0.33354,0.14715,9.98658,0.006889,0.0,0.0,0.0,0.006889,0.0,0.0,0.0,0.006889
1421850805693231821,433811,1421850805693231821,fcu,-0.0280141564482,-0.013146978426,-0.760144098141,0.64901719088,0.0,0.0,0.0,0.0,0.0,0.0,0.0,0.0,0.0,-0.173311194723,0.0473856891916,-0.0185877565337,0.000169,0.0,0.0,0.0,0.000169,0.0,0.0,0.0,0.000169,0.44145,0.07848,10.32012,0.006889,0.0,0.0,0.0,0.006889,0.0,0.0,0.0,0.006889
1421850805695231915,433812,1421850805695231915,fcu,-0.0283926569566,-0.0132409879841,-0.760140313557,0.649003264224,0.0,0.0,0.0,0.0,0.0,0.0,0.0,0.0,0.0,0.00418879020479,-0.222529479629,-0.115977128795,0.000169,0.0,0.0,0.0,0.000169,0.0,0.0,0.0,0.000169,0.44145,0.07848,10.32012,0.006889,0.0,0.0,0.0,0.006889,0.0,0.0,0.0,0.006889
1421850805697233915,433813,1421850805697233915,fcu,-0.0284034929249,-0.0133615136661,-0.760194252198,0.648937139073,0.0,0.0,0.0,0.0,0.0,0.0,0.0,0.0,0.0,-0.0175405589825,-0.106028752059,-0.109170344712,0.000169,0.0,0.0,0.0,0.000169,0.0,0.0,0.0,0.000169,0.35316,0.1962,9.98658,0.006889,0.0,0.0,0.0,0.006889,0.0,0.0,0.0,0.006889
1421850805699234009,433814,1421850805699234009,fcu,-0.0284601232652,-0.0132951741521,-0.760195415315,0.648934657929,0.0,0.0,0.0,0.0,0.0,0.0,0.0,0.0,0.0,-0.0884881930761,-0.0282743338823,0.0390081087821,0.000169,0.0,0.0,0.0,0.000169,0.0,0.0,0.0,0.000169,0.35316,0.1962,9.98658,0.006889,0.0,0.0,0.0,0.006889,0.0,0.0,0.0,0.006889
1421850805701233864,433815,1421850805701233864,fcu,-0.0282902315957,-0.0134941923885,-0.760191908595,0.648942086534,0.0,0.0,0.0,0.0,0.0,0.0,0.0,0.0,0.0,0.267297174943,-0.0374373124553,-0.00733038285838,0.000169,0.0,0.0,0.0,0.000169,0.0,0.0,0.0,0.000169,0.44145,0.04905,10.23183,0.006889,0.0,0.0,0.0,0.006889,0.0,0.0,0.0,0.006889
1421850805703233957,433816,1421850805703233957,fcu,-0.0282239200814,-0.0134375288463,-0.760193454997,0.64894433824,0.0,0.0,0.0,0.0,0.0,0.0,0.0,0.0,0.0,-0.0421497014357,0.147916654107,-0.0369137136797,0.000169,0.0,0.0,0.0,0.000169,0.0,0.0,0.0,0.000169,0.44145,0.04905,10.23183,0.006889,0.0,0.0,0.0,0.006889,0.0,0.0,0.0,0.006889
1421850805705234051,433817,1421850805705234051,fcu,-0.0282902315957,-0.0134941923885,-0.760191908595,0.648942086534,0.0,0.0,0.0,0.0,0.0,0.0,0.0,0.0,0.0,-0.0950331777711,-0.209177710852,-0.000261799387799,0.000169,0.0,0.0,0.0,0.000169,0.0,0.0,0.0,0.000169,0.43164,0.13734,10.14354,0.006889,0.0,0.0,0.0,0.006889,0.0,0.0,0.0,0.006889
1421850805707233906,433818,1421850805707233906,fcu,-0.0283565428945,-0.013550855828,-0.760190356405,0.648939829885,0.0,0.0,0.0,0.0,0.0,0.0,0.0,0.0,0.0,-0.0570722665402,-0.223838476568,-0.0528834763354,0.000169,0.0,0.0,0.0,0.000169,0.0,0.0,0.0,0.000169,0.43164,0.13734,10.14354,0.006889,0.0,0.0,0.0,0.006889,0.0,0.0,0.0,0.006889
1421850805709235907,433819,1421850805709235907,fcu,-0.0285566727544,-0.0137183535379,-0.760242292293,0.648866689102,0.0,0.0,0.0,0.0,0.0,0.0,0.0,0.0,0.0,-0.110741141039,-0.114406332468,0.0201585528605,0.000169,0.0,0.0,0.0,0.000169,0.0,0.0,0.0,0.000169,0.43164,0.13734,10.14354,0.006889,0.0,0.0,0.0,0.006889,0.0,0.0,0.0,0.006889
1421850805711236000,433820,1421850805711236000,fcu,-0.0285554754934,-0.0137208455255,-0.760185665098,0.648933030287,0.0,0.0,0.0,0.0,0.0,0.0,0.0,0.0,0.0,-0.0342957198017,0.0102101761242,0.0418879020479,0.000169,0.0,0.0,0.0,0.000169,0.0,0.0,0.0,0.000169,0.38259,0.12753,10.08468,0.006889,0.0,0.0,0.0,0.006889,0.0,0.0,0.0,0.006889
1421850805713235855,433821,1421850805713235855,fcu,-0.0284325344473,-0.0137305211957,-0.760186039337,0.648937785439,0.0,0.0,0.0,0.0,0.0,0.0,0.0,0.0,0.0,0.253683606777,-0.00863937979737,-0.00785398163397,0.000169,0.0,0.0,0.0,0.000169,0.0,0.0,0.0,0.000169,0.38259,0.12753,10.08468,0.006889,0.0,0.0,0.0,0.006889,0.0,0.0,0.0,0.006889
1421850805715235949,433822,1421850805715235949,fcu,-0.0281987511502,-0.01386795288,-0.760297253309,0.648814763185,0.0,0.0,0.0,0.0,0.0,0.0,0.0,0.0,0.0,-0.0191113553093,0.0759218224618,0.0164933614313,0.000169,0.0,0.0,0.0,0.000169,0.0,0.0,0.0,0.000169,0.46107,0.07848,10.2024,0.006889,0.0,0.0,0.0,0.006889,0.0,0.0,0.0,0.006889
1421850805717236042,433823,1421850805717236042,fcu,-0.0282650726923,-0.0139246039889,-0.76029566937,0.648812520076,0.0,0.0,0.0,0.0,0.0,0.0,0.0,0.0,0.0,-0.00418879020479,-0.0947713783833,0.00654498469498,0.000169,0.0,0.0,0.0,0.000169,0.0,0.0,0.0,0.000169,0.46107,0.07848,10.2024,0.006889,0.0,0.0,0.0,0.006889,0.0,0.0,0.0,0.006889
1421850805719235897,433824,1421850805719235897,fcu,-0.0282760003109,-0.0140451356203,-0.760349473349,0.648746391397,0.0,0.0,0.0,0.0,0.0,0.0,0.0,0.0,0.0,0.0714712328692,-0.138230076758,-0.0840376034835,0.000169,0.0,0.0,0.0,0.000169,0.0,0.0,0.0,0.000169,0.3924,0.17658,9.94734,0.006889,0.0,0.0,0.0,0.006889,0.0,0.0,0.0,0.006889
1421850805721237898,433825,1421850805721237898,fcu,-0.0283989400604,-0.0140354276666,-0.760349100407,0.648741668528,0.0,0.0,0.0,0.0,0.0,0.0,0.0,0.0,0.0,-0.0356047167407,-0.106814150222,-0.0240855436775,0.000169,0.0,0.0,0.0,0.000169,0.0,0.0,0.0,0.000169,0.3924,0.17658,9.94734,0.006889,0.0,0.0,0.0,0.006889,0.0,0.0,0.0,0.006889
1421850805723237991,433826,1421850805723237991,fcu,-0.0283989400604,-0.0140354276666,-0.760349100407,0.648741668528,0.0,0.0,0.0,0.0,0.0,0.0,0.0,0.0,0.0,-0.0761836218496,-0.0505272818452,-0.0217293491873,0.000169,0.0,0.0,0.0,0.000169,0.0,0.0,0.0,0.000169,0.3924,0.17658,9.94734,0.006889,0.0,0.0,0.0,0.006889,0.0,0.0,0.0,0.006889
1421850805725237846,433827,1421850805725237846,fcu,-0.0281724847727,-0.0143008387114,-0.760344154795,0.648751542104,0.0,0.0,0.0,0.0,0.0,0.0,0.0,0.0,0.0,0.0466002910282,0.0693768377668,0.0198967534727,0.000169,0.0,0.0,0.0,0.000169,0.0,0.0,0.0,0.000169,0.43164,0.04905,10.23183,0.006889,0.0,0.0,0.0,0.006889,0.0,0.0,0.0,0.006889
1421850805727237940,433828,1421850805727237940,fcu,-0.0281724847727,-0.0143008387114,-0.760344154795,0.648751542104,0.0,0.0,0.0,0.0,0.0,0.0,0.0,0.0,0.0,0.00811578102177,0.0555014702134,0.0259181393921,0.000169,0.0,0.0,0.0,0.000169,0.0,0.0,0.0,0.000169,0.43164,0.04905,10.23183,0.006889,0.0,0.0,0.0,0.006889,0.0,0.0,0.0,0.006889
1421850805729238033,433829,1421850805729238033,fcu,-0.028173732649,-0.0142983801439,-0.760400766152,0.648685187089,0.0,0.0,0.0,0.0,0.0,0.0,0.0,0.0,0.0,0.0109955742876,-0.0164933614313,-0.0418879020479,0.000169,0.0,0.0,0.0,0.000169,0.0,0.0,0.0,0.000169,0.41202,0.11772,10.09449,0.006889,0.0,0.0,0.0,0.006889,0.0,0.0,0.0,0.006889
1421850805731237888,433830,1421850805731237888,fcu,-0.028173732649,-0.0142983801439,-0.760400766152,0.648685187089,0.0,0.0,0.0,0.0,0.0,0.0,0.0,0.0,0.0,0.0680678408278,-0.00523598775598,0.00497418836818,0.000169,0.0,0.0,0.0,0.000169,0.0,0.0,0.0,0.000169,0.41202,0.11772,10.09449,0.006889,0.0,0.0,0.0,0.006889,0.0,0.0,0.0,0.006889
1421850805733239889,433831,1421850805733239889,fcu,-0.0281724847727,-0.0143008387114,-0.760344154795,0.648751542104,0.0,0.0,0.0,0.0,0.0,0.0,0.0,0.0,0.0,-0.0581194640914,-0.0484328867428,0.0267035375555,0.000169,0.0,0.0,0.0,0.000169,0.0,0.0,0.0,0.000169,0.37278,0.14715,10.01601,0.006889,0.0,0.0,0.0,0.006889,0.0,0.0,0.0,0.006889
1421850805735239983,433832,1421850805735239983,fcu,-0.0280702384486,-0.0145540903311,-0.760395360484,0.648690323592,0.0,0.0,0.0,0.0,0.0,0.0,0.0,0.0,0.0,0.212319303505,-0.0206821516361,-0.070424035318,0.000169,0.0,0.0,0.0,0.000169,0.0,0.0,0.0,0.000169,0.37278,0.14715,10.01601,0.006889,0.0,0.0,0.0,0.006889,0.0,0.0,0.0,0.006889
1421850805737239838,433833,1421850805737239838,fcu,-0.0280136294319,-0.0146204472889,-0.760394087505,0.648692770713,0.0,0.0,0.0,0.0,0.0,0.0,0.0,0.0,0.0,0.0824668071567,-0.0659734457254,0.0246091424531,0.000169,0.0,0.0,0.0,0.000169,0.0,0.0,0.0,0.000169,0.37278,0.14715,10.01601,0.006889,0.0,0.0,0.0,0.006889,0.0,0.0,0.0,0.006889
1421850805739239931,433834,1421850805739239931,fcu,-0.0280136294319,-0.0146204472889,-0.760394087505,0.648692770713,0.0,0.0,0.0,0.0,0.0,0.0,0.0,0.0,0.0,0.00366519142919,-0.0541924732744,0.00340339204139,0.000169,0.0,0.0,0.0,0.000169,0.0,0.0,0.0,0.000169,0.41202,0.03924,10.21221,0.006889,0.0,0.0,0.0,0.006889,0.0,0.0,0.0,0.006889
1421850805741240025,433835,1421850805741240025,fcu,-0.0280149051999,-0.0146180025829,-0.760450693733,0.64862641134,0.0,0.0,0.0,0.0,0.0,0.0,0.0,0.0,0.0,0.0209439510239,0.101316363078,-0.0536688744988,0.000169,0.0,0.0,0.0,0.000169,0.0,0.0,0.0,0.000169,0.41202,0.03924,10.21221,0.006889,0.0,0.0,0.0,0.006889,0.0,0.0,0.0,0.006889
1421850805743239880,433836,1421850805743239880,fcu,-0.0279485679164,-0.0145613702903,-0.760452335171,0.648628622542,0.0,0.0,0.0,0.0,0.0,0.0,0.0,0.0,0.0,-0.00837758040957,0.069115038379,-0.00916297857297,0.000169,0.0,0.0,0.0,0.000169,0.0,0.0,0.0,0.000169,0.3924,0.13734,9.99639,0.006889,0.0,0.0,0.0,0.006889,0.0,0.0,0.0,0.006889
1421850805745241880,433837,1421850805745241880,fcu,-0.0279016981089,-0.0147507260436,-0.760448130828,0.648631290985,0.0,0.0,0.0,0.0,0.0,0.0,0.0,0.0,0.0,0.109693943488,-0.0929387826687,-0.0403171057211,0.000169,0.0,0.0,0.0,0.000169,0.0,0.0,0.0,0.000169,0.3924,0.13734,9.99639,0.006889,0.0,0.0,0.0,0.006889,0.0,0.0,0.0,0.006889
1421850805747241974,433838,1421850805747241974,fcu,-0.0279016981089,-0.0147507260436,-0.760448130828,0.648631290985,0.0,0.0,0.0,0.0,0.0,0.0,0.0,0.0,0.0,0.204988920647,-0.0557632696012,-0.0798488132787,0.000169,0.0,0.0,0.0,0.000169,0.0,0.0,0.0,0.000169,0.3924,0.13734,9.99639,0.006889,0.0,0.0,0.0,0.006889,0.0,0.0,0.0,0.006889
1421850805750241995,433839,1421850805750241995,fcu,-0.0277884901679,-0.014883449055,-0.760445544758,0.64863615087,0.0,0.0,0.0,0.0,0.0,0.0,0.0,0.0,0.0,-0.0102101761242,-0.0746128255228,0.0450294947015,0.000169,0.0,0.0,0.0,0.000169,0.0,0.0,0.0,0.000169,0.41202,0.04905,10.19259,0.006889,0.0,0.0,0.0,0.006889,0.0,0.0,0.0,0.006889
1421850805751241922,433840,1421850805751241922,fcu,-0.0277221521165,-0.0148268173388,-0.760447205964,0.648638338915,0.0,0.0,0.0,0.0,0.0,0.0,0.0,0.0,0.0,0.0845612022591,0.0248709418409,-0.0403171057211,0.000169,0.0,0.0,0.0,0.000169,0.0,0.0,0.0,0.000169,0.41202,0.04905,10.19259,0.006889,0.0,0.0,0.0,0.006889,0.0,0.0,0.0,0.006889
1421850805757241964,433843,1421850805757241964,fcu,-0.0277429348465,-0.0150703819537,-0.760497860162,0.648572446102,0.0,0.0,0.0,0.0,0.0,0.0,0.0,0.0,0.0,0.106028752059,-0.106290551446,-0.0960803753223,0.000169,0.0,0.0,0.0,0.000169,0.0,0.0,0.0,0.000169,0.36297,0.05886,10.25145,0.006889,0.0,0.0,0.0,0.006889,0.0,0.0,0.0,0.006889
1421850805759243965,433844,1421850805759243965,fcu,-0.0276960805108,-0.0152597387521,-0.760493525555,0.648575103659,0.0,0.0,0.0,0.0,0.0,0.0,0.0,0.0,0.0,0.151320046148,-0.0984365698125,-0.0492182849062,0.000169,0.0,0.0,0.0,0.000169,0.0,0.0,0.0,0.000169,0.36297,0.05886,10.25145,0.006889,0.0,0.0,0.0,0.006889,0.0,0.0,0.0,0.006889
1421850805765244007,433847,1421850805765244007,fcu,-0.0275731380283,-0.0152694793092,-0.760493888683,0.64857968696,0.0,0.0,0.0,0.0,0.0,0.0,0.0,0.0,0.0,0.0267035375555,-0.0924151838931,-0.063879050623,0.000169,0.0,0.0,0.0,0.000169,0.0,0.0,0.0,0.000169,0.41202,0.05886,10.23183,0.006889,0.0,0.0,0.0,0.006889,0.0,0.0,0.0,0.006889
1421850805767243862,433848,1421850805767243862,fcu,-0.0276394815504,-0.0153261042737,-0.760492190996,0.648577518129,0.0,0.0,0.0,0.0,0.0,0.0,0.0,0.0,0.0,0.113882733693,-0.222791279017,-0.102625360017,0.000169,0.0,0.0,0.0,0.000169,0.0,0.0,0.0,0.000169,0.37278,0.08829,10.17297,0.006889,0.0,0.0,0.0,0.006889,0.0,0.0,0.0,0.006889
1421850805775245905,433852,1421850805775245905,fcu,-0.0274241991025,-0.015712161067,-0.760540300172,0.648521004373,0.0,0.0,0.0,0.0,0.0,0.0,0.0,0.0,0.0,0.00916297857297,0.136659280431,0.00497418836818,0.000169,0.0,0.0,0.0,0.000169,0.0,0.0,0.0,0.000169,0.47088,0.06867,10.32012,0.006889,0.0,0.0,0.0,0.006889,0.0,0.0,0.0,0.006889
1421850805777245998,433853,1421850805777245998,fcu,-0.0274241991025,-0.015712161067,-0.760540300172,0.648521004373,0.0,0.0,0.0,0.0,0.0,0.0,0.0,0.0,0.0,0.056025068989,0.00890117918517,-0.0513126800086,0.000169,0.0,0.0,0.0,0.000169,0.0,0.0,0.0,0.000169,0.47088,0.06867,10.32012,0.006889,0.0,0.0,0.0,0.006889,0.0,0.0,0.0,0.006889
1421850805781245947,433855,1421850805781245947,fcu,-0.0275212208771,-0.0161353380963,-0.760585721089,0.648453232039,0.0,0.0,0.0,0.0,0.0,0.0,0.0,0.0,0.0,0.185092167174,-0.129328897573,0.0319395253115,0.000169,0.0,0.0,0.0,0.000169,0.0,0.0,0.0,0.000169,0.42183,0.08829,10.19259,0.006889,0.0,0.0,0.0,0.006889,0.0,0.0,0.0,0.006889
1421850805783246040,433856,1421850805783246040,fcu,-0.027408044019,-0.0162680851007,-0.760582893357,0.648458025522,0.0,0.0,0.0,0.0,0.0,0.0,0.0,0.0,0.0,0.0709476340936,0.00445058959259,-0.0138753675534,0.000169,0.0,0.0,0.0,0.000169,0.0,0.0,0.0,0.000169,0.41202,0.02943,10.31031,0.006889,0.0,0.0,0.0,0.006889,0.0,0.0,0.0,0.006889
1421850805789247990,433859,1421850805789247990,fcu,-0.0272962974647,-0.0163984496206,-0.760636628614,0.648396423652,0.0,0.0,0.0,0.0,0.0,0.0,0.0,0.0,0.0,0.0845612022591,-0.146869456555,-0.124616508592,0.000169,0.0,0.0,0.0,0.000169,0.0,0.0,0.0,0.000169,0.44145,0.0981,10.22202,0.006889,0.0,0.0,0.0,0.006889,0.0,0.0,0.0,0.006889
1421850805791247845,433860,1421850805791247845,fcu,-0.0272962974647,-0.0163984496206,-0.760636628614,0.648396423652,0.0,0.0,0.0,0.0,0.0,0.0,0.0,0.0,0.0,0.00497418836818,-0.0814196096055,-0.050789081233,0.000169,0.0,0.0,0.0,0.000169,0.0,0.0,0.0,0.000169,0.44145,0.0981,10.22202,0.006889,0.0,0.0,0.0,0.006889,0.0,0.0,0.0,0.006889
1421850805801249981,433865,1421850805801249981,fcu,-0.0270714168592,-0.0166615985244,-0.760687439329,0.648339532322,0.0,0.0,0.0,0.0,0.0,0.0,0.0,0.0,0.0,0.0175405589825,-0.126187304919,-0.0950331777711,0.000169,0.0,0.0,0.0,0.000169,0.0,0.0,0.0,0.000169,0.48069,0.04905,10.29069,0.006889,0.0,0.0,0.0,0.006889,0.0,0.0,0.0,0.006889
1421850805803249836,433866,1421850805803249836,fcu,-0.0270714168592,-0.0166615985244,-0.760687439329,0.648339532322,0.0,0.0,0.0,0.0,0.0,0.0,0.0,0.0,0.0,0.118856922061,-0.0840376034835,0.0138753675534,0.000169,0.0,0.0,0.0,0.000169,0.0,0.0,0.0,0.000169,0.3924,0.0981,10.17297,0.006889,0.0,0.0,0.0,0.006889,0.0,0.0,0.0,0.006889
1421850805807250023,433868,1421850805807250023,fcu,-0.0269016810407,-0.0168607454571,-0.760683051264,0.648346597384,0.0,0.0,0.0,0.0,0.0,0.0,0.0,0.0,0.0,0.075660023074,0.0986983692003,0.0578576647036,0.000169,0.0,0.0,0.0,0.000169,0.0,0.0,0.0,0.000169,0.44145,0.05886,10.25145,0.006889,0.0,0.0,0.0,0.006889,0.0,0.0,0.0,0.006889
1421850805809249878,433869,1421850805809249878,fcu,-0.0266543171462,-0.0168826394918,-0.760627170819,0.648421800122,0.0,0.0,0.0,0.0,0.0,0.0,0.0,0.0,0.0,0.156294234516,0.0301069295969,0.0416261026601,0.000169,0.0,0.0,0.0,0.000169,0.0,0.0,0.0,0.000169,0.44145,0.05886,10.25145,0.006889,0.0,0.0,0.0,0.006889,0.0,0.0,0.0,0.006889
1421850805813249826,433871,1421850805813249826,fcu,-0.0266655770645,-0.0170032934396,-0.760680447137,0.648355683522,0.0,0.0,0.0,0.0,0.0,0.0,0.0,0.0,0.0,-0.0845612022591,-0.0832522053201,-0.0392699081699,0.000169,0.0,0.0,0.0,0.000169,0.0,0.0,0.0,0.000169,0.41202,0.11772,10.13373,0.006889,0.0,0.0,0.0,0.006889,0.0,0.0,0.0,0.006889
1421850805815251827,433872,1421850805815251827,fcu,-0.0265622038841,-0.0172590358419,-0.760674118726,0.648360594196,0.0,0.0,0.0,0.0,0.0,0.0,0.0,0.0,0.0,0.249233017185,-0.0429350995991,-0.0670206432766,0.000169,0.0,0.0,0.0,0.000169,0.0,0.0,0.0,0.000169,0.36297,0.06867,10.14354,0.006889,0.0,0.0,0.0,0.006889,0.0,0.0,0.0,0.006889
1421850805819252014,433874,1421850805819252014,fcu,-0.0263163085903,-0.0172786041494,-0.760674810616,0.648369288474,0.0,0.0,0.0,0.0,0.0,0.0,0.0,0.0,0.0,0.0670206432766,0.0947713783833,0.0607374579694,0.000169,0.0,0.0,0.0,0.000169,0.0,0.0,0.0,0.000169,0.36297,0.06867,10.14354,0.006889,0.0,0.0,0.0,0.006889,0.0,0.0,0.0,0.006889
1421850805821251869,433875,1421850805821251869,fcu,-0.0263163085903,-0.0172786041494,-0.760674810616,0.648369288474,0.0,0.0,0.0,0.0,0.0,0.0,0.0,0.0,0.0,0.0646644487864,0.0445058959259,-0.00497418836818,0.000169,0.0,0.0,0.0,0.000169,0.0,0.0,0.0,0.000169,0.44145,0.07848,10.23183,0.006889,0.0,0.0,0.0,0.006889,0.0,0.0,0.0,0.006889
1421850805827251911,433878,1421850805827251911,fcu,-0.0262808356859,-0.0175886475175,-0.760723093886,0.64830573928,0.0,0.0,0.0,0.0,0.0,0.0,0.0,0.0,0.0,0.279863545557,-0.0767072206252,-0.0869173967493,0.000169,0.0,0.0,0.0,0.000169,0.0,0.0,0.0,0.000169,0.35316,0.0981,10.13373,0.006889,0.0,0.0,0.0,0.006889,0.0,0.0,0.0,0.006889
1421850805829253912,433879,1421850805829253912,fcu,-0.0260334016228,-0.0176105094936,-0.760667198992,0.648380709409,0.0,0.0,0.0,0.0,0.0,0.0,0.0,0.0,0.0,0.103148958793,0.12487830798,0.0947713783833,0.000169,0.0,0.0,0.0,0.000169,0.0,0.0,0.0,0.000169,0.43164,0.02943,10.27107,0.006889,0.0,0.0,0.0,0.006889,0.0,0.0,0.0,0.006889
1421850805833253860,433881,1421850805833253860,fcu,-0.025920237445,-0.017743270696,-0.760664113792,0.648385243219,0.0,0.0,0.0,0.0,0.0,0.0,0.0,0.0,0.0,0.145822259004,-0.069115038379,-0.0767072206252,0.000169,0.0,0.0,0.0,0.000169,0.0,0.0,0.0,0.000169,0.43164,0.02943,10.27107,0.006889,0.0,0.0,0.0,0.006889,0.0,0.0,0.0,0.006889
1421850805835253954,433882,1421850805835253954,fcu,-0.0260545326952,-0.0178541888942,-0.760716907944,0.648314873525,0.0,0.0,0.0,0.0,0.0,0.0,0.0,0.0,0.0,-0.0219911485751,-0.103934356956,-0.0136135681656,0.000169,0.0,0.0,0.0,0.000169,0.0,0.0,0.0,0.000169,0.3924,0.10791,10.12392,0.006889,0.0,0.0,0.0,0.006889,0.0,0.0,0.0,0.006889
1421850805847255945,433888,1421850805847255945,fcu,-0.0257052752519,-0.0181295233357,-0.760710965377,0.648328147131,0.0,0.0,0.0,0.0,0.0,0.0,0.0,0.0,0.0,-0.157865030843,-0.0795870138909,-0.0311541271481,0.000169,0.0,0.0,0.0,0.000169,0.0,0.0,0.0,0.000169,0.37278,0.0981,10.07487,0.006889,0.0,0.0,0.0,0.006889,0.0,0.0,0.0,0.006889
1421850805849256039,433889,1421850805849256039,fcu,-0.0255921202529,-0.0182622921689,-0.760707789592,0.648332623673,0.0,0.0,0.0,0.0,0.0,0.0,0.0,0.0,0.0,0.209177710852,-0.137706477982,-0.0536688744988,0.000169,0.0,0.0,0.0,0.000169,0.0,0.0,0.0,0.000169,0.37278,0.0981,10.07487,0.006889,0.0,0.0,0.0,0.006889,0.0,0.0,0.0,0.006889
1421850805853255987,433891,1421850805853255987,fcu,-0.0251748650385,-0.0184832323111,-0.760647059028,0.648413947942,0.0,0.0,0.0,0.0,0.0,0.0,0.0,0.0,0.0,0.143466064514,0.171478599008,0.113620934305,0.000169,0.0,0.0,0.0,0.000169,0.0,0.0,0.0,0.000169,0.47088,-0.00981,10.19259,0.006889,0.0,0.0,0.0,0.006889,0.0,0.0,0.0,0.006889
1421850805855255842,433892,1421850805855255842,fcu,-0.024985537485,-0.0184364229194,-0.760649321709,0.648419949269,0.0,0.0,0.0,0.0,0.0,0.0,0.0,0.0,0.0,0.0261799387799,0.0604756585816,0.00471238898038,0.000169,0.0,0.0,0.0,0.000169,0.0,0.0,0.0,0.000169,0.47088,-0.00981,10.19259,0.006889,0.0,0.0,0.0,0.006889,0.0,0.0,0.0,0.006889
1421850805869257927,433899,1421850805869257927,fcu,-0.0245812881867,-0.0187759570351,-0.760698108084,0.648368423094,0.0,0.0,0.0,0.0,0.0,0.0,0.0,0.0,0.0,-0.0986983692003,-0.196611340237,-0.0772308194007,0.000169,0.0,0.0,0.0,0.000169,0.0,0.0,0.0,0.000169,0.46107,0.0,10.17297,0.006889,0.0,0.0,0.0,0.006889,0.0,0.0,0.0,0.006889
1421850805871259928,433900,1421850805871259928,fcu,-0.0246476657275,-0.0188325445846,-0.760696147706,0.648366561988,0.0,0.0,0.0,0.0,0.0,0.0,0.0,0.0,0.0,-0.0431968989869,-0.250542014124,-0.0416261026601,0.000169,0.0,0.0,0.0,0.000169,0.0,0.0,0.0,0.000169,0.34335,0.05886,10.05525,0.006889,0.0,0.0,0.0,0.006889,0.0,0.0,0.0,0.006889
1421850805875259876,433902,1421850805875259876,fcu,-0.0242303405998,-0.0190534001365,-0.760635237585,0.648447294606,0.0,0.0,0.0,0.0,0.0,0.0,0.0,0.0,0.0,0.149487450433,0.308923277603,0.0863937979737,0.000169,0.0,0.0,0.0,0.000169,0.0,0.0,0.0,0.000169,0.46107,-0.06867,10.26126,0.006889,0.0,0.0,0.0,0.006889,0.0,0.0,0.0,0.006889
1421850805877259970,433903,1421850805877259970,fcu,-0.0240410047494,-0.0190065926664,-0.760637522698,0.648453034991,0.0,0.0,0.0,0.0,0.0,0.0,0.0,0.0,0.0,0.133517687778,0.251065612899,0.0596902604182,0.000169,0.0,0.0,0.0,0.000169,0.0,0.0,0.0,0.000169,0.46107,-0.06867,10.26126,0.006889,0.0,0.0,0.0,0.006889,0.0,0.0,0.0,0.006889
1421850805881259918,433905,1421850805881259918,fcu,-0.0243533016425,-0.0190436149168,-0.760634923234,0.64844334447,0.0,0.0,0.0,0.0,0.0,0.0,0.0,0.0,0.0,-0.196611340237,-0.180641577581,-0.0780162175641,0.000169,0.0,0.0,0.0,0.000169,0.0,0.0,0.0,0.000169,0.42183,0.07848,10.04544,0.006889,0.0,0.0,0.0,0.006889,0.0,0.0,0.0,0.006889
1421850805883260012,433906,1421850805883260012,fcu,-0.0244196748906,-0.0191002075709,-0.760632943263,0.648441506361,0.0,0.0,0.0,0.0,0.0,0.0,0.0,0.0,0.0,-0.0604756585816,-0.071733032257,0.0010471975512,0.000169,0.0,0.0,0.0,0.000169,0.0,0.0,0.0,0.000169,0.35316,0.06867,10.05525,0.006889,0.0,0.0,0.0,0.006889,0.0,0.0,0.0,0.006889
1421850805887261868,433908,1421850805887261868,fcu,-0.023994202414,-0.0191959410676,-0.76063221149,0.648455420936,0.0,0.0,0.0,0.0,0.0,0.0,0.0,0.0,0.0,0.139277274309,0.197134939013,0.0238237442897,0.000169,0.0,0.0,0.0,0.000169,0.0,0.0,0.0,0.000169,0.35316,0.06867,10.05525,0.006889,0.0,0.0,0.0,0.006889,0.0,0.0,0.0,0.006889
1421850805889261961,433909,1421850805889261961,fcu,-0.023795078562,-0.0190261634324,-0.760638141153,0.648460806498,0.0,0.0,0.0,0.0,0.0,0.0,0.0,0.0,0.0,-0.118595122673,0.00837758040957,0.00340339204139,0.000169,0.0,0.0,0.0,0.000169,0.0,0.0,0.0,0.000169,0.47088,-0.05886,10.21221,0.006889,0.0,0.0,0.0,0.006889,0.0,0.0,0.0,0.006889
1421850805891262054,433910,1421850805891262054,fcu,-0.0239180419948,-0.0190163780224,-0.76063783278,0.648456931475,0.0,0.0,0.0,0.0,0.0,0.0,0.0,0.0,0.0,-0.146084058392,-0.180117978806,-0.00916297857297,0.000169,0.0,0.0,0.0,0.000169,0.0,0.0,0.0,0.000169,0.47088,-0.05886,10.21221,0.006889,0.0,0.0,0.0,0.006889,0.0,0.0,0.0,0.006889
1421850805893261909,433911,1421850805893261909,fcu,-0.0241171648281,-0.0191861557387,-0.760631900554,0.648451513722,0.0,0.0,0.0,0.0,0.0,0.0,0.0,0.0,0.0,-0.0141371669412,-0.225671072283,-0.0505272818452,0.000169,0.0,0.0,0.0,0.000169,0.0,0.0,0.0,0.000169,0.34335,0.14715,9.91791,0.006889,0.0,0.0,0.0,0.006889,0.0,0.0,0.0,0.006889
1421850805899263859,433914,1421850805899263859,fcu,-0.0233342717897,-0.019432179403,-0.760684963748,0.648410586042,0.0,0.0,0.0,0.0,0.0,0.0,0.0,0.0,0.0,0.160221225333,0.244520628204,0.0151843644924,0.000169,0.0,0.0,0.0,0.000169,0.0,0.0,0.0,0.000169,0.47088,-0.04905,10.19259,0.006889,0.0,0.0,0.0,0.006889,0.0,0.0,0.0,0.006889
1421850805901263952,433915,1421850805901263952,fcu,-0.023267890615,-0.0193755934231,-0.760686957647,0.648412325694,0.0,0.0,0.0,0.0,0.0,0.0,0.0,0.0,0.0,0.0154461638801,0.0740892267472,-0.00549778714378,0.000169,0.0,0.0,0.0,0.000169,0.0,0.0,0.0,0.000169,0.47088,-0.04905,10.19259,0.006889,0.0,0.0,0.0,0.006889,0.0,0.0,0.0,0.006889
1421850805905263901,433917,1421850805905263901,fcu,-0.0236448828708,-0.0194712361128,-0.760625770314,0.648467599817,0.0,0.0,0.0,0.0,0.0,0.0,0.0,0.0,0.0,-0.0908443875663,-0.0238237442897,0.0578576647036,0.000169,0.0,0.0,0.0,0.000169,0.0,0.0,0.0,0.000169,0.38259,0.12753,9.88848,0.006889,0.0,0.0,0.0,0.006889,0.0,0.0,0.0,0.006889
1421850805907263994,433918,1421850805907263994,fcu,-0.0235785074763,-0.0194146444354,-0.760627771561,0.648469366043,0.0,0.0,0.0,0.0,0.0,0.0,0.0,0.0,0.0,0.048171087355,0.0981747704247,0.0217293491873,0.000169,0.0,0.0,0.0,0.000169,0.0,0.0,0.0,0.000169,0.37278,0.0981,9.99639,0.006889,0.0,0.0,0.0,0.006889,0.0,0.0,0.0,0.006889
1421850805911263943,433920,1421850805911263943,fcu,-0.0231645174975,-0.0196313255926,-0.760679850347,0.648416672719,0.0,0.0,0.0,0.0,0.0,0.0,0.0,0.0,0.0,0.110479341651,0.240070038612,-0.0227765467385,0.000169,0.0,0.0,0.0,0.000169,0.0,0.0,0.0,0.000169,0.47088,-0.03924,10.11411,0.006889,0.0,0.0,0.0,0.006889,0.0,0.0,0.0,0.006889
1421850805913265944,433921,1421850805913265944,fcu,-0.0230415506022,-0.0196411220771,-0.760680147945,0.648420408216,0.0,0.0,0.0,0.0,0.0,0.0,0.0,0.0,0.0,0.0178023583703,0.00811578102177,0.00837758040957,0.000169,0.0,0.0,0.0,0.000169,0.0,0.0,0.0,0.000169,0.47088,-0.03924,10.11411,0.006889,0.0,0.0,0.0,0.006889,0.0,0.0,0.0,0.006889
1421850805923265934,433926,1421850805923265934,fcu,-0.0229399122141,-0.0198948499408,-0.760729534214,0.648358335451,0.0,0.0,0.0,0.0,0.0,0.0,0.0,0.0,0.0,0.0764454212374,0.110479341651,-0.00314159265359,0.000169,0.0,0.0,0.0,0.000169,0.0,0.0,0.0,0.000169,0.46107,-0.02943,10.0062,0.006889,0.0,0.0,0.0,0.006889,0.0,0.0,0.0,0.006889
1421850805925266027,433927,1421850805925266027,fcu,-0.0230709398989,-0.0200100207977,-0.76066887707,0.64842130614,0.0,0.0,0.0,0.0,0.0,0.0,0.0,0.0,0.0,-0.223314877793,-0.0853466004225,0.0413643032723,0.000169,0.0,0.0,0.0,0.000169,0.0,0.0,0.0,0.000169,0.46107,-0.02943,10.0062,0.006889,0.0,0.0,0.0,0.006889,0.0,0.0,0.0,0.006889
1421850805927268028,433928,1421850805927268028,fcu,-0.0231841104143,-0.0198772587294,-0.760672357892,0.648417269626,0.0,0.0,0.0,0.0,0.0,0.0,0.0,0.0,0.0,-0.259704992697,0.00471238898038,0.0353429173529,0.000169,0.0,0.0,0.0,0.000169,0.0,0.0,0.0,0.000169,0.3924,0.21582,9.67266,0.006889,0.0,0.0,0.0,0.006889,0.0,0.0,0.0,0.006889
1421850805929267883,433929,1421850805929267883,fcu,-0.0231743139819,-0.019754292488,-0.76067611485,0.648416970318,0.0,0.0,0.0,0.0,0.0,0.0,0.0,0.0,0.0,-0.0149225651046,0.0725184304204,-0.0808960108299,0.000169,0.0,0.0,0.0,0.000169,0.0,0.0,0.0,0.000169,0.3924,0.21582,9.67266,0.006889,0.0,0.0,0.0,0.006889,0.0,0.0,0.0,0.006889
1421850805931267977,433930,1421850805931267977,fcu,-0.023061143519,-0.0198870552139,-0.76067265549,0.648421005122,0.0,0.0,0.0,0.0,0.0,0.0,0.0,0.0,0.0,0.247924020246,-0.0848230016469,-0.129590696961,0.000169,0.0,0.0,0.0,0.000169,0.0,0.0,0.0,0.000169,0.44145,0.02943,9.86886,0.006889,0.0,0.0,0.0,0.006889,0.0,0.0,0.0,0.006889
1421850805939267874,433934,1421850805939267874,fcu,-0.022834800489,-0.0201525788442,-0.760665667256,0.648429015476,0.0,0.0,0.0,0.0,0.0,0.0,0.0,0.0,0.0,-0.0523598775598,0.0350811179651,0.0536688744988,0.000169,0.0,0.0,0.0,0.000169,0.0,0.0,0.0,0.000169,0.44145,0.08829,9.69228,0.006889,0.0,0.0,0.0,0.006889,0.0,0.0,0.0,0.006889
1421850805941269875,433935,1421850805941269875,fcu,-0.022834800489,-0.0201525788442,-0.760665667256,0.648429015476,0.0,0.0,0.0,0.0,0.0,0.0,0.0,0.0,0.0,-0.0816814089933,-0.0434586983747,0.0397935069455,0.000169,0.0,0.0,0.0,0.000169,0.0,0.0,0.0,0.000169,0.44145,0.08829,9.69228,0.006889,0.0,0.0,0.0,0.006889,0.0,0.0,0.0,0.006889
1421850805943269968,433936,1421850805943269968,fcu,-0.0226766242502,-0.0204727043794,-0.760713095477,0.648368896121,0.0,0.0,0.0,0.0,0.0,0.0,0.0,0.0,0.0,0.350025781487,-0.147393055331,-0.0929387826687,0.000169,0.0,0.0,0.0,0.000169,0.0,0.0,0.0,0.000169,0.48069,0.07848,9.83943,0.006889,0.0,0.0,0.0,0.006889,0.0,0.0,0.0,0.006889
1421850805947269917,433938,1421850805947269917,fcu,-0.0225652602662,-0.0206035044367,-0.760766089038,0.648306457167,0.0,0.0,0.0,0.0,0.0,0.0,0.0,0.0,0.0,0.0607374579694,-0.0952949771589,0.00261799387799,0.000169,0.0,0.0,0.0,0.000169,0.0,0.0,0.0,0.000169,0.46107,0.07848,9.72171,0.006889,0.0,0.0,0.0,0.006889,0.0,0.0,0.0,0.006889
1421850805949270010,433939,1421850805949270010,fcu,-0.0226748375834,-0.0204746832102,-0.760656511721,0.648435278393,0.0,0.0,0.0,0.0,0.0,0.0,0.0,0.0,0.0,-0.0371755130675,0.0308923277603,0.107861347773,0.000169,0.0,0.0,0.0,0.000169,0.0,0.0,0.0,0.000169,0.46107,0.07848,9.72171,0.006889,0.0,0.0,0.0,0.006889,0.0,0.0,0.0,0.006889
1421850805951269865,433940,1421850805951269865,fcu,-0.0226748375834,-0.0204746832102,-0.760656511721,0.648435278393,0.0,0.0,0.0,0.0,0.0,0.0,0.0,0.0,0.0,-0.00497418836818,-0.0879645943005,0.0510508806208,0.000169,0.0,0.0,0.0,0.000169,0.0,0.0,0.0,0.000169,0.46107,0.16677,9.72171,0.006889,0.0,0.0,0.0,0.006889,0.0,0.0,0.0,0.006889
1421850805953269958,433941,1421850805953269958,fcu,-0.0227412203174,-0.0205312662454,-0.760654431312,0.648433605028,0.0,0.0,0.0,0.0,0.0,0.0,0.0,0.0,0.0,0.0518362787842,0.00183259571459,-0.0654498469498,0.000169,0.0,0.0,0.0,0.000169,0.0,0.0,0.0,0.000169,0.46107,0.16677,9.72171,0.006889,0.0,0.0,0.0,0.006889,0.0,0.0,0.0,0.006889
1421850805959271908,433944,1421850805959271908,fcu,-0.0225264944199,-0.0209177786231,-0.760699873886,0.648375435575,0.0,0.0,0.0,0.0,0.0,0.0,0.0,0.0,0.0,-0.234572251468,-0.0196349540849,0.141371669412,0.000169,0.0,0.0,0.0,0.000169,0.0,0.0,0.0,0.000169,0.4905,-0.06867,9.82962,0.006889,0.0,0.0,0.0,0.006889,0.0,0.0,0.0,0.006889
1421850805961272001,433945,1421850805961272001,fcu,-0.0225148729087,-0.0207967834751,-0.760647218207,0.648441503707,0.0,0.0,0.0,0.0,0.0,0.0,0.0,0.0,0.0,-0.213628300444,0.110217542263,0.115191730632,0.000169,0.0,0.0,0.0,0.000169,0.0,0.0,0.0,0.000169,0.50031,0.14715,9.73152,0.006889,0.0,0.0,0.0,0.006889,0.0,0.0,0.0,0.006889
1421850805965271950,433947,1421850805965271950,fcu,-0.0227060447006,-0.0208415875102,-0.760701406188,0.648369828406,0.0,0.0,0.0,0.0,0.0,0.0,0.0,0.0,0.0,0.113359134917,-0.113359134917,-0.0913679863419,0.000169,0.0,0.0,0.0,0.000169,0.0,0.0,0.0,0.000169,0.4905,0.0,9.75114,0.006889,0.0,0.0,0.0,0.006889,0.0,0.0,0.0,0.006889
1421850805967272043,433948,1421850805967272043,fcu,-0.0226709229172,-0.0211519107957,-0.76074824117,0.648306053867,0.0,0.0,0.0,0.0,0.0,0.0,0.0,0.0,0.0,0.249233017185,-0.205512519422,-0.0882263936883,0.000169,0.0,0.0,0.0,0.000169,0.0,0.0,0.0,0.000169,0.4905,0.0,9.75114,0.006889,0.0,0.0,0.0,0.006889,0.0,0.0,0.0,0.006889
1421850805969274044,433949,1421850805969274044,fcu,-0.0224815614146,-0.0211051593124,-0.76075066349,0.648311329259,0.0,0.0,0.0,0.0,0.0,0.0,0.0,0.0,0.0,0.069115038379,0.16650441064,0.0968657734857,0.000169,0.0,0.0,0.0,0.000169,0.0,0.0,0.0,0.000169,0.50031,-0.03924,9.78057,0.006889,0.0,0.0,0.0,0.006889,0.0,0.0,0.0,0.006889
1421850805971273899,433950,1421850805971273899,fcu,-0.022413331216,-0.0210505454781,-0.760696211459,0.648379357314,0.0,0.0,0.0,0.0,0.0,0.0,0.0,0.0,0.0,-0.0319395253115,0.125401906756,0.175143790438,0.000169,0.0,0.0,0.0,0.000169,0.0,0.0,0.0,0.000169,0.50031,-0.03924,9.78057,0.006889,0.0,0.0,0.0,0.006889,0.0,0.0,0.0,0.006889
1421850805973273993,433951,1421850805973273993,fcu,-0.0225148729087,-0.0207967834751,-0.760647218207,0.648441503707,0.0,0.0,0.0,0.0,0.0,0.0,0.0,0.0,0.0,-0.182735972684,0.0277507351067,0.0303687289847,0.000169,0.0,0.0,0.0,0.000169,0.0,0.0,0.0,0.000169,0.51012,0.17658,9.7119,0.006889,0.0,0.0,0.0,0.006889,0.0,0.0,0.0,0.006889
1421850805975273848,433952,1421850805975273848,fcu,-0.0226476390219,-0.0209099476106,-0.760643000509,0.648438188507,0.0,0.0,0.0,0.0,0.0,0.0,0.0,0.0,0.0,-0.0735656279716,-0.245829625143,-0.0617846555206,0.000169,0.0,0.0,0.0,0.000169,0.0,0.0,0.0,0.000169,0.51012,0.17658,9.7119,0.006889,0.0,0.0,0.0,0.006889,0.0,0.0,0.0,0.006889
1421850805977273941,433953,1421850805977273941,fcu,-0.022782238971,-0.0210211230638,-0.760695343361,0.648368472831,0.0,0.0,0.0,0.0,0.0,0.0,0.0,0.0,0.0,-0.0327249234749,-0.239284640448,-0.0861319985859,0.000169,0.0,0.0,0.0,0.000169,0.0,0.0,0.0,0.000169,0.51012,0.17658,9.7119,0.006889,0.0,0.0,0.0,0.006889,0.0,0.0,0.0,0.006889
1421850805985275984,433957,1421850805985275984,fcu,-0.0226672308671,-0.021155867296,-0.760635078832,0.648438819608,0.0,0.0,0.0,0.0,0.0,0.0,0.0,0.0,0.0,-0.103410758181,-0.216769893098,-0.0510508806208,0.000169,0.0,0.0,0.0,0.000169,0.0,0.0,0.0,0.000169,0.51012,0.15696,9.73152,0.006889,0.0,0.0,0.0,0.006889,0.0,0.0,0.0,0.006889
1421850805987275839,433958,1421850805987275839,fcu,-0.0228018521661,-0.0212670396522,-0.760687378818,0.648369108047,0.0,0.0,0.0,0.0,0.0,0.0,0.0,0.0,0.0,-0.00994837673637,-0.241379035551,-0.0811578102177,0.000169,0.0,0.0,0.0,0.000169,0.0,0.0,0.0,0.000169,0.51012,0.15696,9.73152,0.006889,0.0,0.0,0.0,0.006889,0.0,0.0,0.0,0.006889
1421850805989275932,433959,1421850805989275932,fcu,-0.0230674004535,-0.0214933387569,-0.760678741144,0.648362386476,0.0,0.0,0.0,0.0,0.0,0.0,0.0,0.0,0.0,0.0594284610304,-0.263631983514,-0.0869173967493,0.000169,0.0,0.0,0.0,0.000169,0.0,0.0,0.0,0.000169,0.51012,0.15696,9.73152,0.006889,0.0,0.0,0.0,0.006889,0.0,0.0,0.0,0.006889
1421850805991276026,433960,1421850805991276026,fcu,-0.0229561266649,-0.021624098697,-0.760731556009,0.648300018739,0.0,0.0,0.0,0.0,0.0,0.0,0.0,0.0,0.0,0.171216799621,-0.218602488812,-0.11414453308,0.000169,0.0,0.0,0.0,0.000169,0.0,0.0,0.0,0.000169,0.48069,-0.04905,9.79038,0.006889,0.0,0.0,0.0,0.006889,0.0,0.0,0.0,0.006889
1421850806001277924,433965,1421850806001277924,fcu,-0.0231632060372,-0.0219187774392,-0.760664298528,0.648361672237,0.0,0.0,0.0,0.0,0.0,0.0,0.0,0.0,0.0,0.199491133503,-0.3282964323,-0.132994089002,0.000169,0.0,0.0,0.0,0.000169,0.0,0.0,0.0,0.000169,0.47088,0.00981,9.78057,0.006889,0.0,0.0,0.0,0.006889,0.0,0.0,0.0,0.006889
1421850806003278017,433966,1421850806003278017,fcu,-0.0231183611014,-0.0221060934414,-0.760714817176,0.648297639161,0.0,0.0,0.0,0.0,0.0,0.0,0.0,0.0,0.0,0.142157067575,-0.103672557568,-0.0431968989869,0.000169,0.0,0.0,0.0,0.000169,0.0,0.0,0.0,0.000169,0.47088,0.00981,9.78057,0.006889,0.0,0.0,0.0,0.006889,0.0,0.0,0.0,0.006889
1421850806017279863,433973,1421850806017279863,fcu,-0.0228959880069,-0.0225005765146,-0.760533094597,0.648505134761,0.0,0.0,0.0,0.0,0.0,0.0,0.0,0.0,0.0,0.100007366139,0.102363560629,0.139277274309,0.000169,0.0,0.0,0.0,0.000169,0.0,0.0,0.0,0.000169,0.54936,0.05886,9.86886,0.006889,0.0,0.0,0.0,0.006889,0.0,0.0,0.0,0.006889
1421850806019279957,433974,1421850806019279957,fcu,-0.0230091731557,-0.0223678381068,-0.760537010105,0.64850112878,0.0,0.0,0.0,0.0,0.0,0.0,0.0,0.0,0.0,-0.192946148808,-0.0617846555206,-0.0544542726622,0.000169,0.0,0.0,0.0,0.000169,0.0,0.0,0.0,0.000169,0.54936,0.05886,9.86886,0.006889,0.0,0.0,0.0,0.006889,0.0,0.0,0.0,0.006889
1421850806027282000,433978,1421850806027282000,fcu,-0.0232514597557,-0.0230253311309,-0.760626333587,0.648364700149,0.0,0.0,0.0,0.0,0.0,0.0,0.0,0.0,0.0,0.138491876146,0.178285383091,0.134303085941,0.000169,0.0,0.0,0.0,0.000169,0.0,0.0,0.0,0.000169,0.48069,-0.00981,9.83943,0.006889,0.0,0.0,0.0,0.006889,0.0,0.0,0.0,0.006889
1421850806029281855,433979,1421850806029281855,fcu,-0.0232278721157,-0.0227834898615,-0.760521748,0.648496761261,0.0,0.0,0.0,0.0,0.0,0.0,0.0,0.0,0.0,-0.235357649631,0.0439822971503,0.0238237442897,0.000169,0.0,0.0,0.0,0.000169,0.0,0.0,0.0,0.000169,0.57879,0.14715,9.84924,0.006889,0.0,0.0,0.0,0.006889,0.0,0.0,0.0,0.006889
1421850806031281948,433980,1421850806031281948,fcu,-0.0234835919478,-0.0228868682612,-0.760516870692,0.648489631038,0.0,0.0,0.0,0.0,0.0,0.0,0.0,0.0,0.0,-0.0761836218496,-0.378823714145,-0.0235619449019,0.000169,0.0,0.0,0.0,0.000169,0.0,0.0,0.0,0.000169,0.57879,0.14715,9.84924,0.006889,0.0,0.0,0.0,0.006889,0.0,0.0,0.0,0.006889
1421850806033282042,433981,1421850806033282042,fcu,-0.0237413152845,-0.0229881743873,-0.760568552965,0.648416047016,0.0,0.0,0.0,0.0,0.0,0.0,0.0,0.0,0.0,-0.235619449019,-0.48171087355,-0.0793252145031,0.000169,0.0,0.0,0.0,0.000169,0.0,0.0,0.0,0.000169,0.44145,0.1962,9.70209,0.006889,0.0,0.0,0.0,0.006889,0.0,0.0,0.0,0.006889
1421850806035281897,433982,1421850806035281897,fcu,-0.0239739445134,-0.0235225540615,-0.76066162018,0.648279136654,0.0,0.0,0.0,0.0,0.0,0.0,0.0,0.0,0.0,0.436157780073,-0.290073721681,-0.179070781255,0.000169,0.0,0.0,0.0,0.000169,0.0,0.0,0.0,0.000169,0.44145,0.1962,9.70209,0.006889,0.0,0.0,0.0,0.006889,0.0,0.0,0.0,0.006889
1421850806037281990,433983,1421850806037281990,fcu,-0.0238607980947,-0.0236553142002,-0.760657503134,0.648283311023,0.0,0.0,0.0,0.0,0.0,0.0,0.0,0.0,0.0,0.198443935952,-0.0301069295969,0.0390081087821,0.000169,0.0,0.0,0.0,0.000169,0.0,0.0,0.0,0.000169,0.44145,0.1962,9.70209,0.006889,0.0,0.0,0.0,0.006889,0.0,0.0,0.0,0.006889
1421850806039283991,433984,1421850806039283991,fcu,-0.0235345635276,-0.0234995527907,-0.76055172365,0.648424992571,0.0,0.0,0.0,0.0,0.0,0.0,0.0,0.0,0.0,0.0952949771589,0.109170344712,0.126187304919,0.000169,0.0,0.0,0.0,0.000169,0.0,0.0,0.0,0.000169,0.52974,0.0,9.9081,0.006889,0.0,0.0,0.0,0.006889,0.0,0.0,0.0,0.006889
1421850806041283846,433985,1421850806041283846,fcu,-0.0235227286827,-0.0233786603569,-0.760499525054,0.648491011401,0.0,0.0,0.0,0.0,0.0,0.0,0.0,0.0,0.0,-0.184568568398,0.158388629618,0.0416261026601,0.000169,0.0,0.0,0.0,0.000169,0.0,0.0,0.0,0.000169,0.52974,0.0,9.9081,0.006889,0.0,0.0,0.0,0.006889,0.0,0.0,0.0,0.006889
1421850806043283939,433986,1421850806043283939,fcu,-0.0236379398569,-0.0232438650839,-0.760560182079,0.648420527105,0.0,0.0,0.0,0.0,0.0,0.0,0.0,0.0,0.0,-0.0892735912395,-0.147654854719,-0.046862090416,0.000169,0.0,0.0,0.0,0.000169,0.0,0.0,0.0,0.000169,0.50031,0.1962,9.73152,0.006889,0.0,0.0,0.0,0.006889,0.0,0.0,0.0,0.006889
1421850806045284033,433987,1421850806045284033,fcu,-0.0242940053375,-0.0236845434142,-0.760597633523,0.648336396933,0.0,0.0,0.0,0.0,0.0,0.0,0.0,0.0,0.0,0.0649262481742,-0.411025038845,-0.123045712266,0.000169,0.0,0.0,0.0,0.000169,0.0,0.0,0.0,0.000169,0.50031,0.1962,9.73152,0.006889,0.0,0.0,0.0,0.006889,0.0,0.0,0.0,0.006889
1421850806051283836,433990,1421850806051283836,fcu,-0.023583536411,-0.0241142675354,-0.76052945166,0.648426766928,0.0,0.0,0.0,0.0,0.0,0.0,0.0,0.0,0.0,0.230383461263,0.278554548618,0.182997772072,0.000169,0.0,0.0,0.0,0.000169,0.0,0.0,0.0,0.000169,0.55917,0.10791,9.65304,0.006889,0.0,0.0,0.0,0.006889,0.0,0.0,0.0,0.006889
1421850806053285837,433991,1421850806053285837,fcu,-0.0235695543231,-0.0239954401738,-0.760420765632,0.648559136976,0.0,0.0,0.0,0.0,0.0,0.0,0.0,0.0,0.0,-0.228289066161,0.0788016157275,0.0814196096055,0.000169,0.0,0.0,0.0,0.000169,0.0,0.0,0.0,0.000169,0.55917,0.10791,9.65304,0.006889,0.0,0.0,0.0,0.006889,0.0,0.0,0.0,0.006889
1421850806055285931,433992,1421850806055285931,fcu,-0.0240264882158,-0.0242664877524,-0.760465019713,0.648480392324,0.0,0.0,0.0,0.0,0.0,0.0,0.0,0.0,0.0,-0.0866555973615,-0.640884901332,-0.0636172512352,0.000169,0.0,0.0,0.0,0.000169,0.0,0.0,0.0,0.000169,0.41202,0.24525,9.42741,0.006889,0.0,0.0,0.0,0.006889,0.0,0.0,0.0,0.006889
1421850806057286024,433993,1421850806057286024,fcu,-0.0242864529686,-0.0243656186812,-0.760573023709,0.648340312209,0.0,0.0,0.0,0.0,0.0,0.0,0.0,0.0,0.0,-0.220696883915,-0.49008845396,-0.214675497995,0.000169,0.0,0.0,0.0,0.000169,0.0,0.0,0.0,0.000169,0.41202,0.24525,9.42741,0.006889,0.0,0.0,0.0,0.006889,0.0,0.0,0.0,0.006889
1421850806059285879,433994,1421850806059285879,fcu,-0.0241461314416,-0.0249335426666,-0.760552740674,0.648347755021,0.0,0.0,0.0,0.0,0.0,0.0,0.0,0.0,0.0,0.476213086407,-0.0510508806208,0.118333323285,0.000169,0.0,0.0,0.0,0.000169,0.0,0.0,0.0,0.000169,0.41202,0.24525,9.42741,0.006889,0.0,0.0,0.0,0.006889,0.0,0.0,0.0,0.006889
1421850806061285973,433995,1421850806061285973,fcu,-0.0240111975566,-0.0248225101628,-0.760501111566,0.648417585116,0.0,0.0,0.0,0.0,0.0,0.0,0.0,0.0,0.0,0.0863937979737,0.34138640169,0.119642320224,0.000169,0.0,0.0,0.0,0.000169,0.0,0.0,0.0,0.000169,0.46107,0.0,9.72171,0.006889,0.0,0.0,0.0,0.006889,0.0,0.0,0.0,0.006889
1421850806063285828,433996,1421850806063285828,fcu,-0.023741386291,-0.0246003728133,-0.760397764675,0.648557173819,0.0,0.0,0.0,0.0,0.0,0.0,0.0,0.0,0.0,0.000523598775598,0.250803813512,0.121998514714,0.000169,0.0,0.0,0.0,0.000169,0.0,0.0,0.0,0.000169,0.46107,0.0,9.72171,0.006889,0.0,0.0,0.0,0.006889,0.0,0.0,0.0,0.006889
1421850806065285921,433997,1421850806065285921,fcu,-0.0237903408936,-0.024408999163,-0.760461075226,0.648488375768,0.0,0.0,0.0,0.0,0.0,0.0,0.0,0.0,0.0,-0.15943582717,-0.11178833859,-0.0727802298082,0.000169,0.0,0.0,0.0,0.000169,0.0,0.0,0.0,0.000169,0.46107,0.0,9.72171,0.006889,0.0,0.0,0.0,0.006889,0.0,0.0,0.0,0.006889
1421850806067287922,433998,1421850806067287922,fcu,-0.0239894645411,-0.0245787296999,-0.760453754278,0.64848321431,0.0,0.0,0.0,0.0,0.0,0.0,0.0,0.0,0.0,-0.128019900634,-0.536165146213,-0.174358392274,0.000169,0.0,0.0,0.0,0.000169,0.0,0.0,0.0,0.000169,0.3924,0.25506,9.4176,0.006889,0.0,0.0,0.0,0.006889,0.0,0.0,0.0,0.006889
1421850806069288015,433999,1421850806069288015,fcu,-0.0244584385131,-0.0249704926255,-0.760549637333,0.648338266984,0.0,0.0,0.0,0.0,0.0,0.0,0.0,0.0,0.0,0.205512519422,-0.135350283492,-0.0154461638801,0.000169,0.0,0.0,0.0,0.000169,0.0,0.0,0.0,0.000169,0.3924,0.25506,9.4176,0.006889,0.0,0.0,0.0,0.006889,0.0,0.0,0.0,0.006889
1421850806071287870,434000,1421850806071287870,fcu,-0.0241461314416,-0.0249335426666,-0.760552740674,0.648347755021,0.0,0.0,0.0,0.0,0.0,0.0,0.0,0.0,0.0,0.396626072516,0.0479092879672,0.0591666616426,0.000169,0.0,0.0,0.0,0.000169,0.0,0.0,0.0,0.000169,0.35316,0.02943,9.57456,0.006889,0.0,0.0,0.0,0.006889,0.0,0.0,0.0,0.006889
1421850806073287964,434001,1421850806073287964,fcu,-0.02377724024,-0.0249629637607,-0.760553652419,0.648359186778,0.0,0.0,0.0,0.0,0.0,0.0,0.0,0.0,0.0,0.212842902281,0.4377285764,0.0308923277603,0.000169,0.0,0.0,0.0,0.000169,0.0,0.0,0.0,0.000169,0.35316,0.02943,9.57456,0.006889,0.0,0.0,0.0,0.006889,0.0,0.0,0.0,0.006889
1421850806075287819,434002,1421850806075287819,fcu,-0.0235291292379,-0.0249846314859,-0.760497668126,0.648433069053,0.0,0.0,0.0,0.0,0.0,0.0,0.0,0.0,0.0,0.146607657168,0.117286125734,0.0714712328692,0.000169,0.0,0.0,0.0,0.000169,0.0,0.0,0.0,0.000169,0.50031,0.0981,9.55494,0.006889,0.0,0.0,0.0,0.006889,0.0,0.0,0.0,0.006889
1421850806077287912,434003,1421850806077287912,fcu,-0.023718475825,-0.0250314044152,-0.760494888004,0.648427627432,0.0,0.0,0.0,0.0,0.0,0.0,0.0,0.0,0.0,-0.196873139625,-0.254469004941,-0.061261056745,0.000169,0.0,0.0,0.0,0.000169,0.0,0.0,0.0,0.000169,0.50031,0.0981,9.55494,0.006889,0.0,0.0,0.0,0.006889,0.0,0.0,0.0,0.006889
1421850806079288006,434004,1421850806079288006,fcu,-0.0242441416761,-0.0253567894878,-0.760592728143,0.648280769973,0.0,0.0,0.0,0.0,0.0,0.0,0.0,0.0,0.0,-0.201847327993,-0.280125344945,-0.131161493287,0.000169,0.0,0.0,0.0,0.000169,0.0,0.0,0.0,0.000169,0.50031,0.0981,9.55494,0.006889,0.0,0.0,0.0,0.006889,0.0,0.0,0.0,0.006889
1421850806081290007,434005,1421850806081290007,fcu,-0.0242539568453,-0.0254797198926,-0.760587984146,0.64828114875,0.0,0.0,0.0,0.0,0.0,0.0,0.0,0.0,0.0,0.230383461263,-0.137444678595,-0.057334065928,0.000169,0.0,0.0,0.0,0.000169,0.0,0.0,0.0,0.000169,0.2943,0.16677,9.46665,0.006889,0.0,0.0,0.0,0.006889,0.0,0.0,0.0,0.006889
1421850806083289862,434006,1421850806083289862,fcu,-0.0239612735293,-0.0256886582478,-0.760581591754,0.648291286764,0.0,0.0,0.0,0.0,0.0,0.0,0.0,0.0,0.0,0.350287580875,0.19032815493,0.0109955742876,0.000169,0.0,0.0,0.0,0.000169,0.0,0.0,0.0,0.000169,0.2943,0.16677,9.46665,0.006889,0.0,0.0,0.0,0.006889,0.0,0.0,0.0,0.006889
1421850806085289955,434007,1421850806085289955,fcu,-0.0234497852137,-0.0254820706735,-0.760592322513,0.648305553409,0.0,0.0,0.0,0.0,0.0,0.0,0.0,0.0,0.0,0.119642320224,0.381965306799,0.00706858347058,0.000169,0.0,0.0,0.0,0.000169,0.0,0.0,0.0,0.000169,0.47088,-0.02943,9.78057,0.006889,0.0,0.0,0.0,0.006889,0.0,0.0,0.0,0.006889
1421850806087290049,434008,1421850806087290049,fcu,-0.0235063604567,-0.0254156963751,-0.760594543347,0.648303504561,0.0,0.0,0.0,0.0,0.0,0.0,0.0,0.0,0.0,-0.14870205227,0.0623082542962,0.0774926187885,0.000169,0.0,0.0,0.0,0.000169,0.0,0.0,0.0,0.000169,0.47088,-0.02943,9.78057,0.006889,0.0,0.0,0.0,0.006889,0.0,0.0,0.0,0.006889
